SensorId, TimeStamp (s), FrameNumber, AccX (g), AccY (g), AccZ (g), GyroX (deg/s), GyroY (deg/s), GyroZ (deg/s), MagX (uT), MagY (uT), MagZ (uT), EulerX (deg), EulerY (deg), EulerZ (deg), QuatW, QuatX, QuatY, QuatZ, LinAccX (g), LinAccY (g), LinAccZ (g), Pressure (kPa), Altitude (m), Temperature (degC), HeaveMotion (m)
1, -0.0000, 0, 0.03059036, -0.23376335, -0.97087306, 0.00375430, 0.27081600, -0.01901342, -15.28138542, 4.37644243, -46.46794891, 13.27749062, 1.81461370, 27.77118111, -0.96458608, 0.10844170, 0.04300978, 0.23656766, -0.00166174, -0.00141298, -0.00066107, 0.00000000, 0.00000000, 0.00000000, 0.00000000
1, 0.0025, 1, 0.03166548, -0.23206803, -0.96962726, 0.00492522, 0.27155605, -0.08916341, -15.28138542, 4.37644243, -46.46794891, 13.27678204, 1.81610310, 27.77038765, -0.96458858, 0.10843291, 0.04302009, 0.23655973, -0.00270739, -0.00308883, -0.00192169, 0.00000000, 0.00000000, 0.00000000, 0.00000000
1, 0.0550, 2, 0.02911099, -0.23231438, -0.97003239, 0.00361683, 0.06219563, 0.04982004, -14.34971619, 3.71702695, -46.84002686, 13.26751423, 1.82837951, 27.76726341, -0.96460509, 0.10833034, 0.04310125, 0.23652449, 0.00006013, -0.00268589, -0.00153855, 0.00000000, 0.00000000, 0.00000000, 0.00000000
1, 0.0575, 3, 0.02790333, -0.23377264, -0.97054869, -0.06782318, -0.07745821, 0.11834517, -14.34971619, 3.71702695, -46.84002686, 13.26699924, 1.82767475, 27.76801682, -0.96460396, 0.10832720, 0.04309497, 0.23653175, 0.00125401, -0.00122202, -0.00101279, 0.00000000, 0.00000000, 0.00000000, 0.00000000
1, 0.0600, 4, 0.02965790, -0.23337455, -0.97416657, -0.06851214, 0.06112866, 0.11922286, -14.34971619, 3.71702695, -46.84002686, 13.26596069, 1.82795131, 27.76890373, -0.96460313, 0.10831755, 0.04309600, 0.23653932, -0.00050592, -0.00162338, 0.00259372, 0.00000000, 0.00000000, 0.00000000, 0.00000000
1, 0.0625, 5, 0.02914210, -0.23424545, -0.97187138, -0.06734122, 0.06186869, 0.04907286, -15.19403839, 4.13665581, -46.89726639, 13.26536369, 1.82807148, 27.76961327, -0.96460223, 0.10831201, 0.04309645, 0.23654541, 0.00001844, -0.00072903, 0.00030286, 0.00000000, 0.00000000, 0.00000000, 0.00000000
1, 0.0650, 6, 0.02998122, -0.23437381, -0.97076559, -0.13947016, 0.06080171, 0.11847568, -15.19403839, 4.13665581, -46.89726639, 13.26489830, 1.82841623, 27.77037621, -0.96460116, 0.10830707, 0.04309910, 0.23655164, -0.00081155, -0.00058634, -0.00080631, 0.00000000, 0.00000000, 0.00000000, 0.00000000
1, 0.0675, 7, 0.02961547, -0.23437469, -0.97077107, 0.07409292, -0.07680432, 0.11983952, -15.19403839, 4.13665581, -46.89726639, 13.26493931, 1.82833850, 27.77103424, -0.96459973, 0.10830734, 0.04309916, 0.23655725, -0.00044719, -0.00058622, -0.00079968, 0.00000000, 0.00000000, 0.00000000, 0.00000000
1, 0.0700, 8, 0.02864426, -0.23510565, -0.97091317, 0.14704831, -0.00570389, -0.01927444, -15.19403839, 4.13665581, -46.89726639, 13.26547623, 1.82804549, 27.77143669, -0.96459836, 0.10831231, 0.04309817, 0.23656072, 0.00051850, 0.00013479, -0.00064866, 0.00000000, 0.00000000, 0.00000000, 0.00000000
1, 0.0725, 9, 0.02864426, -0.23510565, -0.97091317, 0.14704831, -0.00570389, -0.01927444, -15.19403839, 4.13665581, -46.89726639, 13.26600361, 1.82775664, 27.77179527, -0.96459711, 0.10831723, 0.04309718, 0.23656386, 0.00051345, 0.00012576, -0.00064664, 0.00000000, 0.00000000, 0.00000000, 0.00000000
1, 0.0750, 10, 0.02996285, -0.23475032, -0.96930993, 0.07374844, -0.00751089, 0.12027837, -15.57253265, 3.92683959, -46.35345840, 13.26633263, 1.82808661, 27.77229118, -0.96459574, 0.10831912, 0.04310111, 0.23656756, -0.00079484, -0.00022579, -0.00225414, 0.00000000, 0.00000000, 0.00000000, 0.00000000
1, 0.0775, 11, 0.02996285, -0.23475032, -0.96930993, 0.07374844, -0.00751089, 0.12027837, -15.57253265, 3.92683959, -46.35345840, 13.26665401, 1.82841408, 27.77258873, -0.96459490, 0.10832103, 0.04310480, 0.23656960, -0.00078912, -0.00023127, -0.00225267, 0.00000000, 0.00000000, 0.00000000, 0.00000000
1, 0.0800, 12, 0.03118610, -0.23498869, -0.96953666, -0.06851214, 0.06112866, 0.11922286, -15.57253265, 3.92683959, -46.35345840, 13.26665783, 1.82930398, 27.77278900, -0.96459454, 0.10831911, 0.04311248, 0.23657039, -0.00199748, 0.00000586, -0.00202754, 0.00000000, 0.00000000, 0.00000000, 0.00000000
1, 0.0825, 13, 0.03118610, -0.23498869, -0.96953666, -0.06851214, 0.06112866, 0.11922286, -15.57253265, 3.92683959, -46.35345840, 13.26666355, 1.83018994, 27.77282906, -0.96459460, 0.10831729, 0.04311999, 0.23656985, -0.00198206, 0.00000595, -0.00202702, 0.00000000, 0.00000000, 0.00000000, 0.00000000
1, 0.0850, 14, 0.03166768, -0.23608783, -0.96880889, -0.06851214, 0.06112866, 0.11922286, -15.57253265, 3.92683959, -46.35345840, 13.26714993, 1.83124840, 27.77277374, -0.96459436, 0.10831919, 0.04312984, 0.23656812, -0.00244312, 0.00110110, -0.00274720, 0.00000000, 0.00000000, 0.00000000, 0.00000000
1, 0.0875, 15, 0.03180219, -0.23449594, -0.97013128, -0.13843672, -0.14707863, 0.11715916, -14.29148579, 3.62710810, -46.69691849, 13.26675320, 1.83147109, 27.77272034, -0.96459484, 0.10831541, 0.04313084, 0.23656759, -0.00257747, -0.00049166, -0.00143588, 0.00000000, 0.00000000, 0.00000000, 0.00000000
1, 0.0900, 16, 0.03193109, -0.23558816, -0.97038144, -0.21125467, -0.00955870, 0.18743965, -14.29148579, 3.62710810, -46.69691849, 13.26643181, 1.83199608, 27.77302742, -0.96459460, 0.10831148, 0.04313488, 0.23656976, -0.00269792, 0.00060467, -0.00118078, 0.00000000, 0.00000000, 0.00000000, 0.00000000
1, 0.0925, 17, 0.03133544, -0.23679982, -0.97112966, -0.14064108, 0.06006168, 0.18862566, -14.29148579, 3.62710810, -46.69691849, 13.26655579, 1.83255303, 27.77345657, -0.96459365, 0.10831120, 0.04314022, 0.23657276, -0.00209469, 0.00180993, -0.00042303, 0.00000000, 0.00000000, 0.00000000, 0.00000000
1, 0.0950, 18, 0.03024346, -0.23545891, -0.97186470, -0.06747869, -0.14675169, 0.11790633, -14.29148579, 3.62710810, -46.69691849, 13.26650047, 1.83242059, 27.77365494, -0.96459329, 0.10831094, 0.04313919, 0.23657459, -0.00100706, 0.00046569, 0.00030695, 0.00000000, 0.00000000, 0.00000000, 0.00000000
1, 0.0975, 19, 0.03034865, -0.23583415, -0.97052872, -0.06851214, 0.06112866, 0.11922286, -14.29148579, 3.62710810, -46.69691849, 13.26674843, 1.83293438, 27.77405739, -0.96459228, 0.10831179, 0.04314440, 0.23657738, -0.00109953, 0.00084451, -0.00102593, 0.00000000, 0.00000000, 0.00000000, 0.00000000
1, 0.1100, 20, 0.03109191, -0.23399761, -0.97184008, -0.06747869, -0.14675169, 0.11790633, -15.16492653, 4.07670736, -47.04037476, 13.26620865, 1.83359993, 27.77534676, -0.96459019, 0.10830536, 0.04315010, 0.23658773, -0.00183486, -0.00099031, 0.00027098, 0.00000000, 0.00000000, 0.00000000, 0.00000000
1, 0.1125, 21, 0.03035802, -0.23521930, -0.97137469, 0.00347935, -0.14642474, 0.11865351, -15.89279079, 3.86689472, -47.21210480, 13.26630974, 1.83357584, 27.77542305, -0.96458989, 0.10830624, 0.04315018, 0.23658836, -0.00110005, 0.00023229, -0.00018492, 0.00000000, 0.00000000, 0.00000000, 0.00000000
1, 0.1150, 22, 0.03108585, -0.23558532, -0.97100198, 0.00313487, -0.07713127, 0.11909235, -15.89279079, 3.86689472, -47.21210480, 13.26665020, 1.83421099, 27.77533531, -0.96458983, 0.10830780, 0.04315614, 0.23658687, -0.00181577, 0.00059480, -0.00055582, 0.00000000, 0.00000000, 0.00000000, 0.00000000
1, 0.1175, 23, 0.03181329, -0.23631711, -0.97051066, 0.00161947, -0.00857787, 0.18968117, -15.89279079, 3.86689472, -47.21210480, 13.26738358, 1.83530915, 27.77530861, -0.96458936, 0.10831169, 0.04316686, 0.23658526, -0.00252269, 0.00131707, -0.00104151, 0.00000000, 0.00000000, 0.00000000, 0.00000000
1, 0.1200, 24, 0.03097820, -0.23496783, -0.97221440, 0.00230843, -0.14716476, 0.18880349, -15.89279079, 3.86689472, -47.21210480, 13.26732635, 1.83532965, 27.77512741, -0.96458977, 0.10831124, 0.04316675, 0.23658372, -0.00169200, -0.00004111, 0.00065656, 0.00000000, 0.00000000, 0.00000000, 0.00000000
1, 0.1225, 25, 0.03169456, -0.23436587, -0.97122610, 0.00196395, -0.07787130, 0.18924233, -15.89279079, 3.86689472, -47.21210480, 13.26712227, 1.83592021, 27.77479362, -0.96459067, 0.10830840, 0.04317098, 0.23658040, -0.00239530, -0.00063373, -0.00033771, 0.00000000, 0.00000000, 0.00000000, 0.00000000
1, 0.1250, 26, 0.02926891, -0.23424225, -0.97223419, -0.06899410, -0.07819824, 0.18849516, -15.48518562, 4.10668135, -46.58243561, 13.26669598, 1.83561480, 27.77451515, -0.96459168, 0.10830556, 0.04316726, 0.23657852, 0.00002220, -0.00075602, 0.00067460, 0.00000000, 0.00000000, 0.00000000, 0.00000000
1, 0.1275, 27, 0.03020946, -0.23267660, -0.97001886, -0.06864961, -0.14749171, 0.18805632, -15.48518562, 4.10668135, -46.58243561, 13.26606274, 1.83540177, 27.77423096, -0.96459281, 0.10830078, 0.04316390, 0.23657659, -0.00091583, -0.00229806, -0.00155497, 0.00000000, 0.00000000, 0.00000000, 0.00000000
1, 0.1300, 28, 0.02998523, -0.23266548, -0.97148108, -0.13809223, -0.21637207, 0.11672031, -15.48518562, 4.10668135, -46.58243561, 13.26524734, 1.83497322, 27.77377129, -0.96459448, 0.10829499, 0.04315817, 0.23657346, -0.00070318, -0.00230386, -0.00009578, 0.00000000, 0.00000000, 0.00000000, 0.00000000
1, 0.1325, 29, 0.03011702, -0.23460893, -0.97173810, -0.13809223, -0.21637207, 0.11672031, -15.48518562, 4.10668135, -46.58243561, 13.26481628, 1.83455908, 27.77331924, -0.96459579, 0.10829240, 0.04315338, 0.23657024, -0.00084296, -0.00035470, 0.00017022, 0.00000000, 0.00000000, 0.00000000, 0.00000000
1, 0.1350, 30, 0.03010067, -0.23413128, -0.97064018, -0.06816766, -0.00816478, 0.11878401, -15.48518562, 4.10668135, -46.58243561, 13.26434422, 1.83490837, 27.77277756, -0.96459740, 0.10828791, 0.04315483, 0.23656550, -0.00081742, -0.00081795, -0.00093212, 0.00000000, 0.00000000, 0.00000000, 0.00000000
1, 0.1375, 31, 0.02936796, -0.23425560, -0.97053063, -0.06665226, -0.07671818, 0.04819518, -15.10669613, 3.47724032, -46.52518845, 13.26395988, 1.83476186, 27.77195168, -0.96459943, 0.10828527, 0.04315202, 0.23655884, -0.00008694, -0.00068642, -0.00104047, 0.00000000, 0.00000000, 0.00000000, 0.00000000
1, 0.1400, 32, 0.03094589, -0.23364674, -0.97013724, -0.06899410, -0.07819824, 0.18849516, -15.10669613, 3.47724032, -46.52518845, 13.26350689, 1.83497620, 27.77154732, -0.96460068, 0.10828117, 0.04315251, 0.23655538, -0.00166002, -0.00128534, -0.00144349, 0.00000000, 0.00000000, 0.00000000, 0.00000000
1, 0.1425, 33, 0.02923542, -0.23401852, -0.96980125, 0.00196395, -0.07787130, 0.18924233, -15.10669613, 3.47724032, -46.52518845, 13.26335049, 1.83468461, 27.77102852, -0.96460193, 0.10828067, 0.04314924, 0.23655136, 0.00004633, -0.00090893, -0.00177340, 0.00000000, 0.00000000, 0.00000000, 0.00000000
1, 0.1450, 34, 0.03008389, -0.23304464, -0.96965897, 0.07443740, -0.14609781, 0.11940068, -15.10669613, 3.47724032, -46.52518845, 13.26312733, 1.83452749, 27.77030563, -0.96460366, 0.10827938, 0.04314678, 0.23654553, -0.00080447, -0.00187821, -0.00192470, 0.00000000, 0.00000000, 0.00000000, 0.00000000
1, 0.1475, 35, 0.02862254, -0.23304713, -0.96980256, 0.00196395, -0.07787130, 0.18924233, -15.10669613, 3.47724032, -46.52518845, 13.26262856, 1.83403218, 27.76966667, -0.96460533, 0.10827646, 0.04314097, 0.23654082, 0.00064777, -0.00186813, -0.00177917, 0.00000000, 0.00000000, 0.00000000, 0.00000000
1, 0.1725, 36, 0.02740881, -0.23609307, -0.96948075, 0.00161947, -0.00857787, 0.18968117, -14.84466457, 3.74700141, -47.04037476, 13.26487732, 1.82825422, 27.76437378, -0.96461350, 0.10830949, 0.04309202, 0.23650128, 0.00176161, 0.00114062, -0.00207411, 0.00000000, 0.00000000, 0.00000000, 0.00000000
1, 0.1750, 37, 0.02790749, -0.23596349, -0.97032332, 0.07374844, -0.00751089, 0.12027837, -14.84466457, 3.74700141, -47.04037476, 13.26570129, 1.82755244, 27.76395988, -0.96461350, 0.10831805, 0.04308743, 0.23649821, 0.00124833, 0.00099214, -0.00123072, 0.00000000, 0.00000000, 0.00000000, 0.00000000
1, 0.1775, 38, 0.02753681, -0.23499250, -0.97019935, 0.00396131, -0.00709780, 0.04938120, -14.78643322, 3.08758187, -46.63967514, 13.26628494, 1.82512510, 27.76309013, -0.96461451, 0.10832837, 0.04306740, 0.23649311, 0.00157702, 0.00001167, -0.00135832, 0.00000000, 0.00000000, 0.00000000, 0.00000000
1, 0.1800, 39, 0.02620387, -0.23401600, -0.97106254, 0.00244591, 0.06145560, 0.11997003, -14.78643322, 3.08758187, -46.63967514, 13.26590443, 1.82370591, 27.76247978, -0.96461594, 0.10832838, 0.04305410, 0.23648956, 0.00288278, -0.00096355, -0.00049928, 0.00000000, 0.00000000, 0.00000000, 0.00000000
1, 0.1825, 40, 0.02731586, -0.23546684, -0.97178715, 0.00244591, 0.06145560, 0.11997003, -14.78643322, 3.08758187, -46.63967514, 13.26616573, 1.82284987, 27.76180267, -0.96461701, 0.10833262, 0.04304680, 0.23648462, 0.00175377, 0.00047856, 0.00023117, 0.00000000, 0.00000000, 0.00000000, 0.00000000
1, 0.1850, 41, 0.02788094, -0.23585747, -0.96837753, 0.07409292, -0.07680432, 0.11983952, -14.78643322, 3.08758187, -46.63967514, 13.26694393, 1.82217896, 27.76110077, -0.96461761, 0.10834084, 0.04304210, 0.23647910, 0.00118661, 0.00087563, -0.00317496, 0.00000000, 0.00000000, 0.00000000, 0.00000000
1, 0.1875, 42, 0.02727302, -0.23634537, -0.96839064, 0.07374844, -0.00751089, 0.12027837, -14.78643322, 3.08758187, -46.63967514, 13.26814556, 1.82124853, 27.76029587, -0.96461809, 0.10835321, 0.04303599, 0.23647280, 0.00177826, 0.00134293, -0.00315307, 0.00000000, 0.00000000, 0.00000000, 0.00000000
1, 0.1900, 43, 0.02704062, -0.23633911, -0.96924508, 0.00430579, -0.07639124, 0.04894236, -15.28138542, 4.13665581, -45.78102875, 13.26953411, 1.81958139, 27.75923157, -0.96461880, 0.10836878, 0.04302383, 0.23646504, 0.00197915, 0.00130791, -0.00229331, 0.00000000, 0.00000000, 0.00000000, 0.00000000
1, 0.1925, 44, 0.02766817, -0.23632695, -0.97057301, 0.00513223, -0.00635777, -0.02076879, -15.28138542, 4.13665581, -45.78102875, 13.27341652, 1.81609750, 27.75801849, -0.96461725, 0.10840923, 0.04300140, 0.23645687, 0.00128709, 0.00122170, -0.00095355, 0.00000000, 0.00000000, 0.00000000, 0.00000000
1, 0.1950, 45, 0.02706631, -0.23522711, -0.97142416, 0.00361683, 0.06219563, 0.04982004, -15.28138542, 4.13665581, -45.78102875, 13.27357960, 1.81471956, 27.75709915, -0.96461886, 0.10841384, 0.04298928, 0.23645048, 0.00186254, 0.00011398, -0.00010723, 0.00000000, 0.00000000, 0.00000000, 0.00000000
1, 0.1975, 46, 0.02766287, -0.23669565, -0.97008973, 0.00279039, -0.00783784, 0.11953119, -15.28138542, 4.13665581, -45.78102875, 13.27495670, 1.81372046, 27.75639725, -0.96461886, 0.10842778, 0.04298305, 0.23644505, 0.00125227, 0.00156675, -0.00142981, 0.00000000, 0.00000000, 0.00000000, 0.00000000
1, 0.2000, 47, 0.02802736, -0.23584257, -0.97019887, -0.13843672, -0.14707863, 0.11715916, -15.28138542, 4.13665581, -45.78102875, 13.27485847, 1.81308806, 27.75588799, -0.96461999, 0.10842848, 0.04297705, 0.23644146, 0.00087649, 0.00071461, -0.00132743, 0.00000000, 0.00000000, 0.00000000, 0.00000000
1, 0.2025, 48, 0.02703940, -0.23646168, -0.96912456, 0.00465027, -0.14568470, 0.04850351, -15.68899059, 3.80694604, -46.09586716, 13.27577114, 1.81183720, 27.75490761, -0.96462095, 0.10843914, 0.04296748, 0.23643413, 0.00184562, 0.00132429, -0.00239235, 0.00000000, 0.00000000, 0.00000000, 0.00000000
1, 0.2050, 49, 0.02643063, -0.23621894, -0.96925330, -0.13726580, -0.14633860, 0.04700916, -15.68899059, 3.80694604, -46.09586716, 13.27590275, 1.81075799, 27.75396729, -0.96462268, 0.10844286, 0.04295779, 0.23642726, 0.00243524, 0.00107844, -0.00226337, 0.00000000, 0.00000000, 0.00000000, 0.00000000
1, 0.2075, 50, 0.02693463, -0.23620805, -0.97046149, -0.13375305, -0.14411850, -0.16344078, -15.68899059, 3.80694604, -46.09586716, 13.27584267, 1.81008863, 27.75253487, -0.96462560, 0.10844428, 0.04295067, 0.23641588, 0.00191615, 0.00106150, -0.00105725, 0.00000000, 0.00000000, 0.00000000, 0.00000000
1, 0.2100, 51, 0.02790992, -0.23523092, -0.97068202, -0.13609488, -0.14559856, -0.02314082, -15.68899059, 3.80694604, -46.09586716, 13.27559185, 1.80946565, 27.75119019, -0.96462852, 0.10844399, 0.04294365, 0.23640530, 0.00092938, 0.00008728, -0.00084650, 0.00000000, 0.00000000, 0.00000000, 0.00000000
1, 0.2125, 52, 0.02900309, -0.23596187, -0.97018522, -0.06431042, -0.07523812, -0.09210479, -15.68899059, 3.80694604, -46.09586716, 13.27587509, 1.80940461, 27.74956894, -0.96463162, 0.10844710, 0.04294218, 0.23639160, -0.00016345, 0.00081627, -0.00134104, 0.00000000, 0.00000000, 0.00000000, 0.00000000
1, 0.2150, 53, 0.02692164, -0.23816544, -0.96901858, 0.00430579, -0.07639124, 0.04894236, -15.86367893, 3.74700141, -46.72553635, 13.27843571, 1.80780149, 27.74805260, -0.96463215, 0.10847259, 0.04293255, 0.23637950, 0.00189325, 0.00298289, -0.00247954, 0.00000000, 0.00000000, 0.00000000, 0.00000000
1, 0.2425, 54, 0.02842256, -0.23728636, -0.97202843, -0.20574455, 0.06343491, -0.16287144, -15.19403839, 3.38731742, -46.35345840, 13.28168201, 1.80583215, 27.72672272, -0.96467286, 0.10851203, 0.04290249, 0.23620073, 0.00034953, 0.00203101, 0.00053292, 0.00000000, 0.00000000, 0.00000000, 0.00000000
1, 0.2450, 55, 0.02840086, -0.23571524, -0.97080022, -0.20540008, -0.00585854, -0.16331027, -15.19403839, 3.38731742, -46.35345840, 13.28131771, 1.80581939, 27.72457314, -0.96467769, 0.10850980, 0.04289959, 0.23618278, 0.00037450, 0.00047319, -0.00070581, 0.00000000, 0.00000000, 0.00000000, 0.00000000
1, 0.2475, 56, 0.02840086, -0.23571524, -0.97080022, -0.20540008, -0.00585854, -0.16331027, -15.19403839, 3.38731742, -46.35345840, 13.28095722, 1.80580723, 27.72242928, -0.96468240, 0.10850760, 0.04289672, 0.23616488, 0.00037427, 0.00047931, -0.00070727, 0.00000000, 0.00000000, 0.00000000, 0.00000000
1, 0.2500, 57, 0.02937001, -0.23437622, -0.97065318, 0.01016038, -0.07269108, -0.30180758, -15.19403839, 3.38731742, -46.35345840, 13.28079796, 1.80596876, 27.71993065, -0.96468771, 0.10850684, 0.04289538, 0.23614374, -0.00059163, -0.00085608, -0.00086530, 0.00000000, 0.00000000, 0.00000000, 0.00000000
1, 0.2525, 58, 0.02937001, -0.23437622, -0.97065318, 0.01016038, -0.07269108, -0.30180758, -15.42695904, 4.10668135, -46.43932724, 13.28063965, 1.80612910, 27.71755791, -0.96469271, 0.10850605, 0.04289415, 0.23612365, -0.00058881, -0.00085339, -0.00086594, 0.00000000, 0.00000000, 0.00000000, 0.00000000
1, 0.2550, 59, 0.02743292, -0.23644425, -0.97118539, 0.00816303, -0.14346461, -0.16194643, -15.42695904, 4.10668135, -46.43932724, 13.28104210, 1.80545926, 27.71550941, -0.96469653, 0.10851161, 0.04288741, 0.23610693, 0.00133506, 0.00120466, -0.00031501, 0.00000000, 0.00000000, 0.00000000, 0.00000000
1, 0.2575, 60, 0.02743292, -0.23644425, -0.97118539, 0.00816303, -0.14346461, -0.16194643, -15.42695904, 4.10668135, -46.43932724, 13.28143883, 1.80479419, 27.71354866, -0.96470010, 0.10851708, 0.04288078, 0.23609096, 0.00132344, 0.00119780, -0.00031383, 0.00000000, 0.00000000, 0.00000000, 0.00000000
1, 0.2600, 61, 0.02766858, -0.23644854, -0.97057396, 0.00933395, -0.14272457, -0.23209645, -15.42695904, 4.10668135, -46.43932724, 13.28179646, 1.80430818, 27.71164131, -0.96470368, 0.10852183, 0.04287562, 0.23607527, 0.00108105, 0.00119948, -0.00092469, 0.00000000, 0.00000000, 0.00000000, 0.00000000
1, 0.2625, 62, 0.02730565, -0.23535107, -0.97105682, 0.08077396, -0.00307070, -0.30062157, -15.42695904, 4.10668135, -46.43932724, 13.28203869, 1.80412161, 27.70970726, -0.96470737, 0.10852496, 0.04287272, 0.23605908, 0.00143935, 0.00009513, -0.00044637, 0.00000000, 0.00000000, 0.00000000, 0.00000000
1, 0.2650, 63, 0.02864839, -0.23632172, -0.97092301, 0.01016038, -0.07269108, -0.30180758, -14.93200684, 3.92683959, -47.12623978, 13.28233242, 1.80409265, 27.70789719, -0.96471083, 0.10852819, 0.04287137, 0.23604377, 0.00009648, 0.00106152, -0.00057707, 0.00000000, 0.00000000, 0.00000000, 0.00000000
1, 0.2675, 64, 0.02875600, -0.23596440, -0.96994579, 0.00898947, -0.07343111, -0.23165761, -14.93200684, 3.92683959, -47.12623978, 13.28265762, 1.80405653, 27.70634842, -0.96471369, 0.10853158, 0.04287026, 0.23603061, -0.00000898, 0.00070433, -0.00155548, 0.00000000, 0.00000000, 0.00000000, 0.00000000
1, 0.2700, 65, 0.02853460, -0.23534232, -0.97176784, 0.07960304, -0.00381073, -0.23047160, -14.93200684, 3.92683959, -47.12623978, 13.28284550, 1.80411637, 27.70495224, -0.96471643, 0.10853355, 0.04286983, 0.23601875, 0.00020833, 0.00006858, 0.00026438, 0.00000000, 0.00000000, 0.00000000, 0.00000000
1, 0.2725, 66, 0.02949155, -0.23522912, -0.97041512, 0.08077396, -0.00307070, -0.30062157, -14.93200684, 3.92683959, -47.12623978, 13.28307438, 1.80447817, 27.70356941, -0.96471912, 0.10853525, 0.04287204, 0.23600665, -0.00073851, -0.00004062, -0.00109048, 0.00000000, 0.00000000, 0.00000000, 0.00000000
1, 0.2750, 67, 0.02841190, -0.23607421, -0.97153240, 0.07925855, 0.06548271, -0.23003276, -14.93200684, 3.92683959, -47.12623978, 13.28345585, 1.80467999, 27.70248795, -0.96472096, 0.10853843, 0.04287349, 0.23599720, 0.00034148, 0.00079152, 0.00003624, 0.00000000, 0.00000000, 0.00000000, 0.00000000
1, 0.2775, 68, 0.02777488, -0.23377682, -0.97006434, 0.15221395, 0.13658313, -0.36914670, -15.65987492, 3.83692050, -46.26759720, 13.28364563, 1.80509281, 27.70116806, -0.96472353, 0.10853967, 0.04287611, 0.23598561, 0.00098990, -0.00150054, -0.00144222, 0.00000000, 0.00000000, 0.00000000, 0.00000000
1, 0.2800, 69, 0.02816231, -0.23485970, -0.97140473, 0.15255843, 0.06728971, -0.36958554, -15.65987492, 3.83692050, -46.26759720, 13.28393936, 1.80537820, 27.69970131, -0.96472633, 0.10854210, 0.04287773, 0.23597285, 0.00060364, -0.00043039, -0.00009533, 0.00000000, 0.00000000, 0.00000000, 0.00000000
1, 0.3050, 70, 0.02912698, -0.23413262, -0.97077644, 0.08077396, -0.00307070, -0.30062157, -15.16492653, 4.04673672, -46.89726639, 13.28538799, 1.80639994, 27.68515015, -0.96475506, 0.10855760, 0.04287552, 0.23584878, -0.00034141, -0.00117830, -0.00072425, 0.00000000, 0.00000000, 0.00000000, 0.00000000
1, 0.3075, 71, 0.02985035, -0.23511055, -0.96992242, 0.08146292, -0.14165761, -0.30149925, -15.16492653, 4.04673672, -46.89726639, 13.28559589, 1.80644071, 27.68396950, -0.96475726, 0.10855971, 0.04287517, 0.23583873, -0.00106165, -0.00019892, -0.00157380, 0.00000000, 0.00000000, 0.00000000, 0.00000000
1, 0.3100, 72, 0.02849088, -0.23451544, -0.96872216, 0.08111843, -0.07236414, -0.30106041, -15.16492653, 4.04673672, -46.89726639, 13.28574753, 1.80639911, 27.68283653, -0.96475941, 0.10856149, 0.04287406, 0.23582916, 0.00030044, -0.00078965, -0.00277295, 0.00000000, 0.00000000, 0.00000000, 0.00000000
1, 0.3125, 73, 0.02836898, -0.23500314, -0.96860641, 0.08228935, -0.07162410, -0.37121040, -15.16492653, 4.04673672, -46.89726639, 13.28599644, 1.80637920, 27.68160439, -0.96476173, 0.10856409, 0.04287323, 0.23581871, 0.00042229, -0.00030551, -0.00288455, 0.00000000, 0.00000000, 0.00000000, 0.00000000
1, 0.3150, 74, 0.02899285, -0.23487133, -0.96969020, 0.08194488, -0.00233067, -0.37077156, -15.42695904, 4.19660425, -46.58243561, 13.28616810, 1.80664623, 27.68042374, -0.96476406, 0.10856542, 0.04287472, 0.23580845, -0.00019994, -0.00044649, -0.00180253, 0.00000000, 0.00000000, 0.00000000, 0.00000000
1, 0.3175, 75, 0.02912092, -0.23572032, -0.96993834, 0.08194488, -0.00233067, -0.37077156, -15.42695904, 4.19660425, -46.58243561, 13.28650761, 1.80693376, 27.67925453, -0.96476614, 0.10856812, 0.04287673, 0.23579818, -0.00032369, 0.00039531, -0.00154826, 0.00000000, 0.00000000, 0.00000000, 0.00000000
1, 0.3200, 76, 0.02862543, -0.23389836, -0.96980941, 0.08042947, 0.06622273, -0.30018273, -15.42695904, 4.19660425, -46.58243561, 13.28646660, 1.80725098, 27.67828751, -0.96476823, 0.10856747, 0.04287840, 0.23578973, 0.00017774, -0.00142512, -0.00168643, 0.00000000, 0.00000000, 0.00000000, 0.00000000
1, 0.3225, 77, 0.02888614, -0.23742142, -0.97019881, 0.08077396, -0.00307070, -0.30062157, -15.42695904, 4.19660425, -46.58243561, 13.28724670, 1.80743408, 27.67728424, -0.96476954, 0.10857403, 0.04288059, 0.23578081, -0.00008097, 0.00208240, -0.00127405, 0.00000000, 0.00000000, 0.00000000, 0.00000000
1, 0.3250, 78, 0.02910903, -0.23463073, -0.96932179, 0.00898947, -0.07343111, -0.23165761, -15.42695904, 4.19660425, -46.58243561, 13.28718948, 1.80750942, 27.67638397, -0.96477151, 0.10857373, 0.04288025, 0.23577316, -0.00030002, -0.00070217, -0.00216807, 0.00000000, 0.00000000, 0.00000000, 0.00000000
1, 0.3275, 79, 0.02911720, -0.23462586, -0.96992952, 0.15290292, -0.00200373, -0.37002438, -15.25226974, 4.22657490, -47.24072647, 13.28748035, 1.80779243, 27.67531204, -0.96477348, 0.10857599, 0.04288222, 0.23576377, -0.00030497, -0.00071547, -0.00155905, 0.00000000, 0.00000000, 0.00000000, 0.00000000
1, 0.3300, 80, 0.03034739, -0.23498194, -0.97064340, 0.08277131, 0.06770280, -0.44048271, -15.25226974, 4.22657490, -47.24072647, 13.28762150, 1.80848002, 27.67416763, -0.96477574, 0.10857617, 0.04288720, 0.23575337, -0.00152519, -0.00036589, -0.00084572, 0.00000000, 0.00000000, 0.00000000, 0.00000000
1, 0.3325, 81, 0.02923788, -0.23426077, -0.96992475, 0.15173198, -0.00274376, -0.29987440, -15.25226974, 4.22657490, -47.24072647, 13.28782463, 1.80875492, 27.67336845, -0.96477723, 0.10857760, 0.04288918, 0.23574629, -0.00040884, -0.00108623, -0.00156440, 0.00000000, 0.00000000, 0.00000000, 0.00000000
1, 0.3350, 82, 0.02997346, -0.23450027, -0.97015876, 0.01215774, -0.00191758, -0.44166872, -15.25226974, 4.22657490, -47.24072647, 13.28770351, 1.80927312, 27.67227554, -0.96477962, 0.10857590, 0.04289225, 0.23573659, -0.00113605, -0.00084598, -0.00133129, 0.00000000, 0.00000000, 0.00000000, 0.00000000
1, 0.3375, 83, 0.02925506, -0.23498163, -0.97102457, 0.08077396, -0.00307070, -0.30062157, -15.25226974, 4.22657490, -47.24072647, 13.28781319, 1.80955482, 27.67157555, -0.96478099, 0.10857651, 0.04289418, 0.23573038, -0.00041515, -0.00037149, -0.00046014, 0.00000000, 0.00000000, 0.00000000, 0.00000000
1, 0.3400, 84, 0.02900548, -0.23425452, -0.97077924, 0.22269002, -0.00241682, -0.29912722, -14.84466457, 3.17750502, -47.69866943, 13.28817368, 1.80976748, 27.67079544, -0.96478230, 0.10857938, 0.04289598, 0.23572348, -0.00016119, -0.00110325, -0.00070745, 0.00000000, 0.00000000, 0.00000000, 0.00000000
1, 0.3425, 85, 0.03083834, -0.23546623, -0.97076160, 0.22234555, 0.06687662, -0.29868838, -14.84466457, 3.17750502, -47.69866943, 13.28874493, 1.81044424, 27.67003059, -0.96478343, 0.10858307, 0.04290212, 0.23571612, -0.00198217, 0.00009893, -0.00072058, 0.00000000, 0.00000000, 0.00000000, 0.00000000
1, 0.3450, 86, 0.02914249, -0.23387966, -0.97198993, 0.15255843, 0.06728971, -0.36958554, -14.84466457, 3.17750502, -47.69866943, 13.28882885, 1.81088185, 27.66902542, -0.96478546, 0.10858326, 0.04290503, 0.23570719, -0.00028216, -0.00149613, 0.00050393, 0.00000000, 0.00000000, 0.00000000, 0.00000000
1, 0.3475, 87, 0.02950993, -0.23534001, -0.97175318, 0.15186946, 0.20587659, -0.36870787, -14.84466457, 3.17750502, -47.69866943, 13.28917027, 1.81168568, 27.66809082, -0.96478713, 0.10858480, 0.04291160, 0.23569839, -0.00063493, -0.00004010, 0.00027640, 0.00000000, 0.00000000, 0.00000000, 0.00000000
1, 0.3925, 88, 0.03034490, -0.23376490, -0.97075516, -0.13561293, -0.00627162, -0.09241313, -14.64085960, 3.95681381, -47.32659149, 13.28227043, 1.82036197, 27.65507317, -0.96482134, 0.10851346, 0.04295806, 0.23558256, -0.00131572, -0.00149115, -0.00075604, 0.00000000, 0.00000000, 0.00000000, 0.00000000
1, 0.3950, 89, 0.03168844, -0.23449136, -0.97074091, -0.28021535, 0.06088786, 0.04683134, -14.64085960, 3.95681381, -47.32659149, 13.28141022, 1.82118392, 27.65517235, -0.96482205, 0.10850447, 0.04296330, 0.23558290, -0.00264484, -0.00074991, -0.00077295, 0.00000000, 0.00000000, 0.00000000, 0.00000000
1, 0.3975, 90, 0.03144300, -0.23498031, -0.97050536, -0.13795477, -0.00775169, 0.04788684, -14.64085960, 3.95681381, -47.32659149, 13.28102493, 1.82239008, 27.65534401, -0.96482223, 0.10849864, 0.04297282, 0.23558326, -0.00237773, -0.00025290, -0.00100578, 0.00000000, 0.00000000, 0.00000000, 0.00000000
1, 0.4000, 91, 0.03232254, -0.23496270, -0.97243732, -0.13981465, 0.13009514, 0.11891452, -14.64085960, 3.95681381, -47.32659149, 13.28053761, 1.82347846, 27.65586853, -0.96482170, 0.10849206, 0.04298146, 0.23558676, -0.00324372, -0.00027327, 0.00092218, 0.00000000, 0.00000000, 0.00000000, 0.00000000
1, 0.4025, 92, 0.03083907, -0.23327245, -0.97135162, -0.06851214, 0.06112866, 0.11922286, -14.64085960, 3.95681381, -47.32659149, 13.27959824, 1.82429254, 27.65644264, -0.96482152, 0.10848225, 0.04298693, 0.23559113, -0.00174300, -0.00194118, -0.00017243, 0.00000000, 0.00000000, 0.00000000, 0.00000000
1, 0.4050, 93, 0.03158406, -0.23387192, -0.97219640, -0.06617031, 0.06260873, -0.02107712, -15.42695904, 3.59713364, -46.69691849, 13.27841949, 1.82610655, 27.65651131, -0.96482265, 0.10846852, 0.04299983, 0.23559031, -0.00245870, -0.00132637, 0.00066997, 0.00000000, 0.00000000, 0.00000000, 0.00000000
1, 0.4075, 94, 0.03290925, -0.23497489, -0.97072649, -0.13829924, 0.06154175, 0.04832569, -15.42695904, 3.59713364, -46.69691849, 13.27802849, 1.82775986, 27.65658188, -0.96482307, 0.10846174, 0.04301300, 0.23558937, -0.00375093, -0.00020804, -0.00079785, 0.00000000, 0.00000000, 0.00000000, 0.00000000
1, 0.4100, 95, 0.03229676, -0.23363771, -0.97084641, -0.06548134, -0.07597815, -0.02195480, -15.42695904, 3.59713364, -46.69691849, 13.27699089, 1.82952380, 27.65618706, -0.96482503, 0.10844947, 0.04302533, 0.23558465, -0.00310798, -0.00152809, -0.00068721, 0.00000000, 0.00000000, 0.00000000, 0.00000000
1, 0.4125, 96, 0.03255939, -0.23386961, -0.97218174, -0.06747869, -0.14675169, 0.11790633, -15.42695904, 3.59713364, -46.69691849, 13.27637100, 1.83012736, 27.65601730, -0.96482605, 0.10844305, 0.04302897, 0.23558283, -0.00336386, -0.00129328, 0.00064652, 0.00000000, 0.00000000, 0.00000000, 0.00000000
1, 0.4150, 97, 0.03402935, -0.23495865, -0.97241169, -0.13829924, 0.06154175, 0.04832569, -15.42695904, 3.59713364, -46.69691849, 13.27581406, 1.83217800, 27.65566063, -0.96482754, 0.10843422, 0.04304474, 0.23557799, -0.00479869, -0.00019590, 0.00087748, 0.00000000, 0.00000000, 0.00000000, 0.00000000
1, 0.4175, 98, 0.03207786, -0.23423266, -0.97255665, -0.06816766, -0.00816478, 0.11878401, -14.20414257, 3.92683959, -46.49656677, 13.27503586, 1.83353269, 27.65561867, -0.96482849, 0.10842486, 0.04305450, 0.23557654, -0.00282399, -0.00090931, 0.00102142, 0.00000000, 0.00000000, 0.00000000, 0.00000000
1, 0.4425, 99, 0.03086844, -0.23228012, -0.97377479, -0.14008960, -0.28714553, 0.25658146, -14.93200684, 3.71702695, -46.84002686, 13.26970577, 1.83269382, 27.65785789, -0.96482885, 0.10838088, 0.04303860, 0.23559827, -0.00163261, -0.00277851, 0.00220971, 0.00000000, 0.00000000, 0.00000000, 0.00000000
1, 0.4450, 100, 0.03109967, -0.23387113, -0.97244680, -0.13960764, -0.14781865, 0.18730915, -14.93200684, 3.71702695, -46.84002686, 13.26906300, 1.83262789, 27.65775299, -0.96482962, 0.10837565, 0.04303663, 0.23559767, -0.00186126, -0.00116893, 0.00088780, 0.00000000, 0.00000000, 0.00000000, 0.00000000
1, 0.4475, 101, 0.03086230, -0.23191822, -0.97340715, 0.00148199, -0.21719824, 0.25851464, -14.93200684, 3.71702695, -46.84002686, 13.26832867, 1.83231246, 27.65780449, -0.96483022, 0.10837011, 0.04303251, 0.23559870, -0.00163208, -0.00311492, 0.00183433, 0.00000000, 0.00000000, 0.00000000, 0.00000000
1, 0.4500, 102, 0.03085865, -0.23277336, -0.97292781, -0.14043407, -0.21785213, 0.25702029, -14.93200684, 3.71702695, -46.84002686, 13.26756573, 1.83191049, 27.65793991, -0.96483064, 0.10836447, 0.04302769, 0.23560053, -0.00163410, -0.00224411, 0.00135674, 0.00000000, 0.00000000, 0.00000000, 0.00000000
1, 0.4525, 103, 0.03012099, -0.23143841, -0.97280651, -0.06747869, -0.14675169, 0.11790633, -14.93200684, 3.71702695, -46.84002686, 13.26623535, 1.83178973, 27.65765190, -0.96483248, 0.10835364, 0.04302366, 0.23559873, -0.00089817, -0.00355580, 0.00122438, 0.00000000, 0.00000000, 0.00000000, 0.00000000
1, 0.4550, 104, 0.03022610, -0.22986408, -0.97194105, -0.06596330, -0.21530509, 0.04731750, -14.90289497, 4.10668135, -46.32484055, 13.26448536, 1.83160448, 27.65723991, -0.96483499, 0.10833944, 0.04301812, 0.23559612, -0.00100405, -0.00509536, 0.00034248, 0.00000000, 0.00000000, 0.00000000, 0.00000000
1, 0.4575, 105, 0.03060912, -0.23302105, -0.97244728, -0.06830513, -0.21678515, 0.18761748, -14.90289497, 4.10668135, -46.32484055, 13.26386166, 1.83128166, 27.65731049, -0.96483535, 0.10833483, 0.04301419, 0.23559727, -0.00139419, -0.00193082, 0.00086319, 0.00000000, 0.00000000, 0.00000000, 0.00000000
1, 0.4600, 106, 0.03119457, -0.23218104, -0.97085112, -0.13774776, -0.28566545, 0.11628147, -14.90289497, 4.10668135, -46.32484055, 13.26302624, 1.83091867, 27.65724564, -0.96483624, 0.10832859, 0.04300936, 0.23559740, -0.00198145, -0.00274749, -0.00074301, 0.00000000, 0.00000000, 0.00000000, 0.00000000
1, 0.4625, 107, 0.03095074, -0.23218162, -0.97085476, 0.00416831, -0.28501156, 0.11777582, -14.90289497, 4.10668135, -46.32484055, 13.26239300, 1.83062553, 27.65723038, -0.96483684, 0.10832387, 0.04300557, 0.23559779, -0.00174273, -0.00273620, -0.00074138, 0.00000000, 0.00000000, 0.00000000, 0.00000000
1, 0.4650, 108, 0.03094297, -0.23182069, -0.97036564, 0.00533923, -0.28427154, 0.04762583, -14.90289497, 4.10668135, -46.32484055, 13.26155758, 1.83047879, 27.65706825, -0.96483791, 0.10831720, 0.04300247, 0.23559690, -0.00173614, -0.00308012, -0.00123594, 0.00000000, 0.00000000, 0.00000000, 0.00000000
1, 0.4675, 109, 0.02994400, -0.23305564, -0.96832383, 0.00533923, -0.28427154, 0.04762583, -15.48518562, 4.73612642, -45.63792801, 13.26124668, 1.83003092, 27.65696144, -0.96483839, 0.10831556, 0.04299796, 0.23559658, -0.00073929, -0.00182816, -0.00326929, 0.00000000, 0.00000000, 0.00000000, 0.00000000
1, 0.4700, 110, 0.03081406, -0.23072848, -0.97011548, 0.00568371, -0.35356498, 0.04718699, -15.48518562, 4.73612642, -45.63792801, 13.26030159, 1.82960045, 27.65684319, -0.96483952, 0.10830855, 0.04299229, 0.23559637, -0.00162184, -0.00414964, -0.00149758, 0.00000000, 0.00000000, 0.00000000, 0.00000000
1, 0.4725, 111, 0.03018983, -0.23171350, -0.96879554, 0.00499475, -0.21497814, 0.04806467, -15.48518562, 4.73612642, -45.63792801, 13.25937080, 1.82950079, 27.65682793, -0.96484041, 0.10830092, 0.04298952, 0.23559669, -0.00099566, -0.00314120, -0.00281376, 0.00000000, 0.00000000, 0.00000000, 0.00000000
1, 0.4750, 112, 0.03020205, -0.23097511, -0.96988356, 0.00313487, -0.07713127, 0.11909235, -15.48518562, 4.73612642, -45.63792801, 13.25764465, 1.82984912, 27.65708923, -0.96484154, 0.10828556, 0.04298915, 0.23559919, -0.00100487, -0.00385654, -0.00173686, 0.00000000, 0.00000000, 0.00000000, 0.00000000
1, 0.4775, 113, 0.03300741, -0.23328283, -0.96937388, 0.21738692, -0.35332417, 0.11957851, -15.48518562, 4.73612642, -45.63792801, 13.25802040, 1.82950842, 27.65722656, -0.96484083, 0.10828938, 0.04298719, 0.23560055, -0.00381478, -0.00155233, -0.00223975, 0.00000000, 0.00000000, 0.00000000, 0.00000000
1, 0.4800, 114, 0.03019478, -0.23317276, -0.96880734, 0.14608440, -0.28435767, 0.11927018, -14.49528599, 3.26742387, -46.35345840, 13.25819874, 1.82896030, 27.65737343, -0.96484029, 0.10829197, 0.04298308, 0.23560226, -0.00101009, -0.00166219, -0.00279856, 0.00000000, 0.00000000, 0.00000000, 0.00000000
1, 0.4825, 115, 0.02873505, -0.23268689, -0.96919000, 0.07629728, -0.28394461, 0.04837301, -14.49528599, 3.26742387, -46.35345840, 13.25799847, 1.82816672, 27.65727615, -0.96484065, 0.10829199, 0.04297590, 0.23560233, 0.00043473, -0.00214698, -0.00241583, 0.00000000, 0.00000000, 0.00000000, 0.00000000
1, 0.4850, 116, 0.02887495, -0.23316327, -0.97040761, 0.14759980, -0.35291108, 0.04868134, -14.49528599, 3.26742387, -46.35345840, 13.25810528, 1.82724595, 27.65711212, -0.96484077, 0.10829487, 0.04296822, 0.23560184, 0.00027533, -0.00167964, -0.00119600, 0.00000000, 0.00000000, 0.00000000, 0.00000000
1, 0.5150, 117, 0.02886963, -0.23304459, -0.97004193, 0.22021072, -0.21251725, -0.08999377, -15.89279079, 4.07670736, -46.49656677, 13.26323032, 1.81699896, 27.65192986, -0.96484548, 0.10836135, 0.04288766, 0.23556665, 0.00010294, -0.00188446, -0.00154732, 0.00000000, 0.00000000, 0.00000000, 0.00000000
1, 0.5175, 118, 0.02655610, -0.23292655, -0.97031891, 0.14959715, -0.28213757, -0.09117979, -14.96112251, 2.39819217, -46.49656677, 13.26326752, 1.81590199, 27.65076447, -0.96484774, 0.10836438, 0.04287740, 0.23555791, 0.00239657, -0.00200490, -0.00126499, 0.00000000, 0.00000000, 0.00000000, 0.00000000
1, 0.5200, 119, 0.02767712, -0.23559049, -0.97141796, 0.14959715, -0.28213757, -0.09117979, -14.96112251, 2.39819217, -46.49656677, 13.26376820, 1.81501603, 27.64938927, -0.96485001, 0.10837097, 0.04286968, 0.23554705, 0.00125689, 0.00064399, -0.00015218, 0.00000000, 0.00000000, 0.00000000, 0.00000000
1, 0.5225, 120, 0.02729872, -0.23572077, -0.97045201, 0.22241507, -0.41965750, -0.16146027, -14.96112251, 2.39819217, -46.49656677, 13.26444721, 1.81387603, 27.64784813, -0.96485239, 0.10837964, 0.04286003, 0.23553498, 0.00161816, 0.00076825, -0.00111415, 0.00000000, 0.00000000, 0.00000000, 0.00000000
1, 0.5250, 121, 0.02755110, -0.23486212, -0.97129238, 0.22241507, -0.41965750, -0.16146027, -14.96112251, 2.39819217, -46.49656677, 13.26498222, 1.81277549, 27.64617538, -0.96485519, 0.10838707, 0.04285029, 0.23552179, 0.00134422, -0.00010451, -0.00027798, 0.00000000, 0.00000000, 0.00000000, 0.00000000
1, 0.5275, 122, 0.02764322, -0.23524515, -0.96898401, 0.22310403, -0.55824441, -0.16233796, -14.96112251, 2.39819217, -46.49656677, 13.26562214, 1.81138051, 27.64440536, -0.96485811, 0.10839602, 0.04283819, 0.23550808, 0.00123426, 0.00028086, -0.00258251, 0.00000000, 0.00000000, 0.00000000, 0.00000000
1, 0.5300, 123, 0.02899690, -0.23413779, -0.97017050, 0.22427495, -0.55750442, -0.23248798, -15.83456421, 3.74700141, -46.61105728, 13.26610374, 1.81018412, 27.64249802, -0.96486139, 0.10840328, 0.04282731, 0.23549303, -0.00014361, -0.00084168, -0.00140506, 0.00000000, 0.00000000, 0.00000000, 0.00000000
1, 0.5325, 124, 0.02864509, -0.23534887, -0.97091514, 0.29254666, -0.48936400, -0.09100197, -15.83456421, 3.74700141, -46.61105728, 13.26687908, 1.80902410, 27.64086723, -0.96486396, 0.10841285, 0.04281760, 0.23548020, 0.00018586, 0.00035173, -0.00064989, 0.00000000, 0.00000000, 0.00000000, 0.00000000
1, 0.5350, 125, 0.02792792, -0.23619501, -0.97178388, 0.22241507, -0.41965750, -0.16146027, -15.83456421, 3.74700141, -46.61105728, 13.26756859, 1.80797648, 27.63904953, -0.96486688, 0.10842151, 0.04280849, 0.23546571, 0.00088228, 0.00118103, 0.00022790, 0.00000000, 0.00000000, 0.00000000, 0.00000000
1, 0.5375, 126, 0.02607709, -0.23499402, -0.97046447, 0.15180153, -0.48927784, -0.16264628, -15.83456421, 3.74700141, -46.61105728, 13.26796532, 1.80652380, 27.63717270, -0.96487021, 0.10842858, 0.04279531, 0.23545122, 0.00271150, -0.00001925, -0.00109233, 0.00000000, 0.00000000, 0.00000000, 0.00000000
1, 0.5400, 127, 0.02682043, -0.23510705, -0.97130531, 0.15366140, -0.62712479, -0.23367399, -15.83456421, 3.74700141, -46.61105728, 13.26834297, 1.80493164, 27.63519287, -0.96487373, 0.10843582, 0.04278082, 0.23543601, 0.00193803, 0.00008229, -0.00025234, 0.00000000, 0.00000000, 0.00000000, 0.00000000
1, 0.5425, 128, 0.02632462, -0.23560050, -0.97058725, 0.22275956, -0.48895091, -0.16189910, -15.83456421, 4.07670736, -46.69691849, 13.26898575, 1.80354178, 27.63342285, -0.96487665, 0.10844480, 0.04276877, 0.23542228, 0.00241161, 0.00056883, -0.00096423, 0.00000000, 0.00000000, 0.00000000, 0.00000000
1, 0.5450, 129, 0.02693471, -0.23815764, -0.96999097, 0.22275956, -0.48895091, -0.16189910, -15.83456421, 4.07670736, -46.69691849, 13.26994896, 1.80222225, 27.63168907, -0.96487910, 0.10845630, 0.04275800, 0.23540863, 0.00178011, 0.00311284, -0.00154430, 0.00000000, 0.00000000, 0.00000000, 0.00000000
1, 0.5475, 130, 0.02645146, -0.23608467, -0.97083247, 0.15028612, -0.42072445, -0.09205747, -15.83456421, 4.07670736, -46.69691849, 13.27051163, 1.80088627, 27.63002205, -0.96488190, 0.10846445, 0.04274635, 0.23539576, 0.00223771, 0.00102532, -0.00071192, 0.00000000, 0.00000000, 0.00000000, 0.00000000
1, 0.5500, 131, 0.02645104, -0.23596306, -0.97083151, 0.15180153, -0.48927784, -0.16264628, -15.83456421, 4.07670736, -46.69691849, 13.27101803, 1.79949379, 27.62829590, -0.96488476, 0.10847226, 0.04273404, 0.23538244, 0.00221384, 0.00089492, -0.00071232, 0.00000000, 0.00000000, 0.00000000, 0.00000000
1, 0.5525, 132, 0.02497212, -0.23561050, -0.96975654, 0.22241507, -0.41965750, -0.16146027, -15.83456421, 4.07670736, -46.69691849, 13.27169514, 1.79807627, 27.62664604, -0.96488738, 0.10848153, 0.04272194, 0.23536974, 0.00367109, 0.00053692, -0.00178314, 0.00000000, 0.00000000, 0.00000000, 0.00000000
1, 0.5550, 133, 0.02548270, -0.23705789, -0.97109807, 0.29220217, -0.42007059, -0.09056312, -15.10669613, 3.50721073, -46.72553635, 13.27269650, 1.79667842, 27.62521172, -0.96488923, 0.10849340, 0.04271088, 0.23535869, 0.00313230, 0.00195936, -0.00043141, 0.00000000, 0.00000000, 0.00000000, 0.00000000
1, 0.5575, 134, 0.02485467, -0.23499887, -0.97023970, 0.36316022, -0.41974363, -0.08981594, -15.10669613, 3.50721073, -46.72553635, 13.27362728, 1.79524887, 27.62385368, -0.96489096, 0.10850473, 0.04269948, 0.23534834, 0.00373785, -0.00011064, -0.00129698, 0.00000000, 0.00000000, 0.00000000, 0.00000000
1, 0.5600, 135, 0.02449060, -0.23597354, -0.97013152, 0.36329770, -0.21112335, -0.15864940, -15.10669613, 3.50721073, -46.72553635, 13.27470589, 1.79422343, 27.62240028, -0.96489280, 0.10851650, 0.04269169, 0.23533675, 0.00408431, 0.00084617, -0.00139477, 0.00000000, 0.00000000, 0.00000000, 0.00000000
1, 0.5625, 136, 0.02203511, -0.23525846, -0.96906835, 0.43659756, -0.20931633, -0.29820222, -15.10669613, 3.50721073, -46.72553635, 13.27587318, 1.79313743, 27.62076950, -0.96489495, 0.10852920, 0.04268341, 0.23532368, 0.00652390, 0.00011728, -0.00245102, 0.00000000, 0.00000000, 0.00000000, 0.00000000
1, 0.5650, 137, 0.02290450, -0.23658727, -0.96991718, 0.43659756, -0.20931633, -0.29820222, -15.10669613, 3.50721073, -46.72553635, 13.27716351, 1.79215264, 27.61914062, -0.96489698, 0.10854271, 0.04267623, 0.23531051, 0.00563487, 0.00141916, -0.00159225, 0.00000000, 0.00000000, 0.00000000, 0.00000000
1, 0.5675, 138, 0.02276914, -0.23744856, -0.96871036, 0.65029806, -0.13830204, -0.36567184, -15.77633286, 4.25654936, -46.69691849, 13.27904892, 1.79148006, 27.61755371, -0.96489835, 0.10856059, 0.04267294, 0.23529708, 0.00576190, 0.00225529, -0.00278656, 0.00000000, 0.00000000, 0.00000000, 0.00000000
1, 0.5700, 139, 0.02164451, -0.23661454, -0.96689671, 0.72208267, -0.06794159, -0.43463582, -15.77633286, 4.25654936, -46.69691849, 13.28106117, 1.79095602, 27.61587334, -0.96489990, 0.10857926, 0.04267108, 0.23528273, 0.00688249, 0.00139761, -0.00459395, 0.00000000, 0.00000000, 0.00000000, 0.00000000
1, 0.5725, 140, 0.02154379, -0.23562737, -0.96871394, 0.72277164, -0.20652850, -0.43551350, -15.77633286, 4.25654936, -46.69691849, 13.28293228, 1.79014981, 27.61419487, -0.96490145, 0.10859731, 0.04266654, 0.23526871, 0.00696406, 0.00036804, -0.00277515, 0.00000000, 0.00000000, 0.00000000, 0.00000000
1, 0.5750, 141, 0.02018232, -0.23588642, -0.96715593, 0.79490066, -0.20546152, -0.50491631, -15.77633286, 4.25654936, -46.69691849, 13.28501797, 1.78934085, 27.61239052, -0.96490306, 0.10861722, 0.04266230, 0.23525356, 0.00831580, 0.00060063, -0.00431993, 0.00000000, 0.00000000, 0.00000000, 0.00000000
1, 0.5775, 142, 0.01898361, -0.23660824, -0.96851724, 0.79421169, -0.06687462, -0.50403863, -15.77633286, 4.25654936, -46.69691849, 13.28714561, 1.78870523, 27.61067009, -0.96490455, 0.10863711, 0.04265970, 0.23523892, 0.00949956, 0.00127831, -0.00294293, 0.00000000, 0.00000000, 0.00000000, 0.00000000
1, 0.5800, 143, 0.01871244, -0.23723438, -0.96633792, 0.79221427, -0.13764815, -0.36417750, -15.28138542, 4.25654936, -46.72553635, 13.28938293, 1.78774881, 27.60930252, -0.96490514, 0.10865846, 0.04265495, 0.23522756, 0.00976017, 0.00187896, -0.00510933, 0.00000000, 0.00000000, 0.00000000, 0.00000000
1, 0.5825, 144, 0.01809960, -0.23723778, -0.96610397, 0.72173816, 0.00135184, -0.43419695, -15.28138542, 4.25654936, -46.72553635, 13.29148006, 1.78701448, 27.60787010, -0.96490598, 0.10867818, 0.04265172, 0.23521547, 0.01036087, 0.00184800, -0.00533354, 0.00000000, 0.00000000, 0.00000000, 0.00000000
1, 0.5850, 145, 0.01626306, -0.23590641, -0.96587753, 0.72277164, -0.20652850, -0.43551350, -15.28138542, 4.25654936, -46.72553635, 13.29342461, 1.78577840, 27.60643196, -0.96490693, 0.10869766, 0.04264394, 0.23520386, 0.01217651, 0.00048478, -0.00555531, 0.00000000, 0.00000000, 0.00000000, 0.00000000
1, 0.5875, 146, 0.01796462, -0.23724586, -0.96513343, 0.58133745, -0.06785544, -0.50628018, -15.28138542, 4.25654936, -46.72553635, 13.29518509, 1.78490567, 27.60489273, -0.96490836, 0.10871487, 0.04263876, 0.23519117, 0.01046179, 0.00179854, -0.00628986, 0.00000000, 0.00000000, 0.00000000, 0.00000000
1, 0.5900, 147, 0.01665783, -0.23674119, -0.96782368, 0.51051688, 0.14043796, -0.57586080, -15.28138542, 4.25654936, -46.72553635, 13.29664421, 1.78451598, 27.60339165, -0.96491003, 0.10872854, 0.04263705, 0.23517835, 0.01175420, 0.00125352, -0.00359322, 0.00000000, 0.00000000, 0.00000000, 0.00000000
1, 0.5925, 148, 0.01714022, -0.23759614, -0.96721554, 0.50886405, 0.00037102, -0.43643850, -15.28138542, 4.25654936, -46.72553635, 13.29827881, 1.78344154, 27.60214424, -0.96491086, 0.10874499, 0.04263018, 0.23516832, 0.01125475, 0.00208405, -0.00419178, 0.00000000, 0.00000000, 0.00000000, 0.00000000
1, 0.5950, 149, 0.01677128, -0.23954855, -0.96650738, 0.43955883, 0.14011101, -0.57660794, -14.49528599, 3.77697182, -46.84002686, 13.29986572, 1.78298712, 27.60075188, -0.96491218, 0.10875981, 0.04262829, 0.23515648, 0.01161774, 0.00401354, -0.00488139, 0.00000000, 0.00000000, 0.00000000, 0.00000000
1, 0.5975, 150, 0.01678972, -0.24112162, -0.96749258, 0.29729828, 0.20875059, -0.57766348, -14.49528599, 3.77697182, -46.84002686, 13.30126572, 1.78261995, 27.59946632, -0.96491349, 0.10877287, 0.04262686, 0.23514551, 0.01159010, 0.00555707, -0.00388170, 0.00000000, 0.00000000, 0.00000000, 0.00000000
1, 0.6000, 151, 0.01678972, -0.24112162, -0.96749258, 0.29729828, 0.20875059, -0.57766348, -14.49528599, 3.77697182, -46.84002686, 13.30266666, 1.78224874, 27.59824181, -0.96491456, 0.10878587, 0.04262544, 0.23513505, 0.01158363, 0.00553329, -0.00387626, 0.00000000, 0.00000000, 0.00000000, 0.00000000
1, 0.6275, 152, 0.02680982, -0.24595824, -0.96786773, -1.12496269, 0.82585281, -0.58865738, -15.16492653, 3.14753056, -46.86864471, 13.29553032, 1.79432690, 27.58509064, -0.96494967, 0.10870554, 0.04269994, 0.23501472, 0.00177311, 0.01049023, -0.00352369, 0.00000000, 0.00000000, 0.00000000, 0.00000000
1, 0.6300, 153, 0.02776669, -0.24389544, -0.96698558, -1.26488137, 0.89597225, -0.73001289, -15.16492653, 3.14753056, -46.86864471, 13.29271221, 1.79689217, 27.58369255, -0.96495557, 0.10867698, 0.04271442, 0.23500142, 0.00086354, 0.00848080, -0.00443036, 0.00000000, 0.00000000, 0.00000000, 0.00000000
1, 0.6325, 154, 0.03119415, -0.24266055, -0.96826148, -1.47927105, 0.96354496, -0.66166562, -14.72820663, 3.77697182, -46.58243561, 13.28927708, 1.79971254, 27.58251572, -0.96496147, 0.10864262, 0.04272998, 0.23498991, -0.00251829, 0.00729722, -0.00318356, 0.00000000, 0.00000000, 0.00000000, 0.00000000
1, 0.6350, 155, 0.03107590, -0.24229312, -0.96862501, -1.62001610, 0.96363109, -0.73330992, -14.72820663, 3.77697182, -46.58243561, 13.28545475, 1.80256677, 27.58117104, -0.96496820, 0.10860500, 0.04274488, 0.23497713, -0.00235129, 0.00699295, -0.00283563, 0.00000000, 0.00000000, 0.00000000, 0.00000000
1, 0.6375, 156, 0.03181849, -0.24411255, -0.96899343, -1.76076138, 0.96371728, -0.80495429, -14.72820663, 3.77697182, -46.58243561, 13.28131294, 1.80547535, 27.57969856, -0.96497542, 0.10856463, 0.04275947, 0.23496331, -0.00304416, 0.00888083, -0.00247378, 0.00000000, 0.00000000, 0.00000000, 0.00000000
1, 0.6400, 157, 0.03388688, -0.24191676, -0.96918762, -1.83289051, 0.96265030, -0.73555148, -14.72820663, 3.77697182, -46.58243561, 13.27693176, 1.80841279, 27.57839584, -0.96498251, 0.10852209, 0.04277397, 0.23495102, -0.00506185, 0.00675877, -0.00231418, 0.00000000, 0.00000000, 0.00000000, 0.00000000
1, 0.6425, 158, 0.03169441, -0.24106781, -0.96957844, -1.83289051, 0.96265030, -0.73555148, -14.72820663, 3.77697182, -46.58243561, 13.27252102, 1.81127501, 27.57711029, -0.96498966, 0.10847948, 0.04278778, 0.23493893, -0.00282052, 0.00598278, -0.00193821, 0.00000000, 0.00000000, 0.00000000, 0.00000000
1, 0.6450, 159, 0.03402064, -0.24203126, -0.97003764, -1.61581433, 0.82726431, -0.94463754, -15.51430130, 4.19660425, -46.63967514, 13.26867676, 1.81401289, 27.57523537, -0.96499747, 0.10844211, 0.04280116, 0.23492183, -0.00510029, 0.00700923, -0.00149391, 0.00000000, 0.00000000, 0.00000000, 0.00000000
1, 0.6475, 160, 0.03390482, -0.24141864, -0.97064227, -1.54719818, 0.82611120, -0.80359048, -15.51430130, 4.19660425, -46.63967514, 13.26500034, 1.81666982, 27.57369614, -0.96500438, 0.10840619, 0.04281453, 0.23490755, -0.00493982, 0.00645582, -0.00090585, 0.00000000, 0.00000000, 0.00000000, 0.00000000
1, 0.6500, 161, 0.03221307, -0.24007335, -0.97211576, -1.40493774, 0.75747156, -0.80253494, -15.51430130, 4.19660425, -46.63967514, 13.26164055, 1.81910348, 27.57210732, -0.96501112, 0.10837343, 0.04282661, 0.23489296, -0.00320973, 0.00515943, 0.00055246, 0.00000000, 0.00000000, 0.00000000, 0.00000000
1, 0.6525, 162, 0.03294452, -0.23909681, -0.97233999, -1.04677236, 0.55270606, -0.94041550, -15.51430130, 4.19660425, -46.63967514, 13.25914669, 1.82117391, 27.57007027, -0.96501786, 0.10834888, 0.04283699, 0.23487465, -0.00390567, 0.00422421, 0.00076008, 0.00000000, 0.00000000, 0.00000000, 0.00000000
1, 0.6550, 163, 0.03315197, -0.23802128, -0.96989655, -0.83472466, 0.48365340, -0.86846286, -15.51430130, 4.19660425, -46.63967514, 13.25719070, 1.82308125, 27.56812286, -0.96502388, 0.10832917, 0.04284719, 0.23485702, -0.00407301, 0.00319629, -0.00169680, 0.00000000, 0.00000000, 0.00000000, 0.00000000
1, 0.6575, 164, 0.03182358, -0.23838246, -0.97077048, -0.76645285, 0.55179369, -0.72697687, -14.90289497, 3.74700141, -46.98313522, 13.25544453, 1.82500052, 27.56658936, -0.96502888, 0.10831104, 0.04285831, 0.23484284, -0.00271357, 0.00358228, -0.00082305, 0.00000000, 0.00000000, 0.00000000, 0.00000000
1, 0.6600, 165, 0.03047023, -0.23766185, -0.97005546, -0.55392325, 0.62206793, -0.72429651, -14.90289497, 3.74700141, -46.98313522, 13.25421715, 1.82701671, 27.56510353, -0.96503329, 0.10829707, 0.04287136, 0.23482877, -0.00132302, 0.00288695, -0.00154225, 0.00000000, 0.00000000, 0.00000000, 0.00000000
1, 0.6625, 166, 0.03177040, -0.23622084, -0.96734947, -0.33953372, 0.55449545, -0.79264385, -14.90289497, 3.74700141, -46.98313522, 13.25348663, 1.82901835, 27.56340981, -0.96503764, 0.10828738, 0.04288510, 0.23481274, -0.00258066, 0.00147422, -0.00426204, 0.00000000, 0.00000000, 0.00000000, 0.00000000
1, 0.6650, 167, 0.03124150, -0.23612475, -0.96431702, -0.19947752, 0.69299620, -0.72012180, -14.90289497, 3.74700141, -46.98313522, 13.25317478, 1.83128488, 27.56199265, -0.96504110, 0.10828058, 0.04290219, 0.23479864, -0.00200367, 0.00140132, -0.00729347, 0.00000000, 0.00000000, 0.00000000, 0.00000000
1, 0.6675, 168, 0.03023914, -0.23394985, -0.96285546, -0.19865109, 0.76302958, -0.78983295, -14.90289497, 3.74700141, -46.98313522, 13.25272274, 1.83368611, 27.56045914, -0.96504492, 0.10827235, 0.04292002, 0.23478346, -0.00095527, -0.00075711, -0.00876532, 0.00000000, 0.00000000, 0.00000000, 0.00000000
1, 0.6700, 169, 0.02998145, -0.23468982, -0.96164954, -0.12721106, 0.90268338, -0.85835809, -15.83456421, 4.46636534, -46.66829681, 13.25250626, 1.83643997, 27.55883789, -0.96504873, 0.10826540, 0.04294122, 0.23476711, -0.00064615, -0.00000611, -0.00996557, 0.00000000, 0.00000000, 0.00000000, 0.00000000
1, 0.6950, 170, 0.03523891, -0.23937118, -0.95249003, -1.98128200, 1.79203737, -0.59147972, -15.33961201, 3.89686918, -46.18173218, 13.22201920, 1.87836921, 27.54836845, -0.96510327, 0.10792539, 0.04322170, 0.23464803, -0.00514647, 0.00525128, -0.01921122, 0.00000000, 0.00000000, 0.00000000, 0.00000000
1, 0.6975, 171, 0.03661396, -0.24166292, -0.95443332, -1.98141944, 1.58341718, -0.52264631, -15.33961201, 3.89686918, -46.18173218, 13.21740055, 1.88272774, 27.54794312, -0.96510893, 0.10787757, 0.04324852, 0.23464181, -0.00645096, 0.00761073, -0.01727459, 0.00000000, 0.00000000, 0.00000000, 0.00000000
1, 0.7000, 172, 0.03689827, -0.24297856, -0.95711452, -1.98259044, 1.58267725, -0.45249629, -15.33961201, 3.89686918, -46.18173218, 13.21281338, 1.88705337, 27.54765701, -0.96511430, 0.10783006, 0.04327525, 0.23463674, -0.00666740, 0.00898930, -0.01460248, 0.00000000, 0.00000000, 0.00000000, 0.00000000
1, 0.7025, 173, 0.03592948, -0.24297699, -0.95761538, -1.91128790, 1.51371062, -0.45218796, -15.33961201, 3.89686918, -46.18173218, 13.20841789, 1.89118421, 27.54731560, -0.96511948, 0.10778457, 0.04330068, 0.23463134, -0.00562797, 0.00906004, -0.01411419, 0.00000000, 0.00000000, 0.00000000, 0.00000000
1, 0.7050, 174, 0.03667201, -0.24333422, -0.95833665, -1.69772470, 1.37610459, -0.45082411, -15.33961201, 3.89686918, -46.18173218, 13.20459938, 1.89502239, 27.54687309, -0.96512437, 0.10774459, 0.04332474, 0.23462519, -0.00630560, 0.00947840, -0.01340603, 0.00000000, 0.00000000, 0.00000000, 0.00000000
1, 0.7075, 175, 0.03462232, -0.24332550, -0.96006942, -1.76916480, 1.23645079, -0.38229898, -16.06748009, 4.28652334, -46.09586716, 13.20061111, 1.89840865, 27.54648209, -0.96512926, 0.10770410, 0.04334470, 0.23462000, -0.00420173, 0.00952784, -0.01168151, 0.00000000, 0.00000000, 0.00000000, 0.00000000
1, 0.7100, 176, 0.03416498, -0.24598929, -0.96167856, -1.62821257, 0.95845085, -0.24226002, -16.06748009, 4.28652334, -46.09586716, 13.19716930, 1.90103829, 27.54623032, -0.96513331, 0.10766975, 0.04335955, 0.23461655, -0.00370308, 0.01224108, -0.01006791, 0.00000000, 0.00000000, 0.00000000, 0.00000000
1, 0.7125, 177, 0.03440134, -0.24282503, -0.96189243, -1.62635255, 0.82060403, -0.31328768, -16.06748009, 4.28652334, -46.09586716, 13.19360161, 1.90339398, 27.54568291, -0.96513802, 0.10763501, 0.04337155, 0.23461090, -0.00389892, 0.00913655, -0.00988586, 0.00000000, 0.00000000, 0.00000000, 0.00000000
1, 0.7150, 178, 0.03346334, -0.24706991, -0.96364319, -1.55739200, 0.75015736, -0.17267935, -16.06748009, 4.28652334, -46.09586716, 13.19046593, 1.90545571, 27.54538918, -0.96514171, 0.10760441, 0.04338220, 0.23460753, -0.00292995, 0.01342474, -0.00811931, 0.00000000, 0.00000000, 0.00000000, 0.00000000
1, 0.7175, 179, 0.03432403, -0.24535760, -0.96458900, -1.69861901, 0.61091661, -0.17505138, -16.06748009, 4.28652334, -46.09586716, 13.18688011, 1.90722239, 27.54500198, -0.96514606, 0.10757069, 0.04338936, 0.23460385, -0.00376243, 0.01176814, -0.00719918, 0.00000000, 0.00000000, 0.00000000, 0.00000000
1, 0.7200, 180, 0.03397186, -0.24790928, -0.96497977, -1.69827461, 0.54162323, -0.17549023, -15.22315407, 3.20747924, -46.23897552, 13.18343735, 1.90880251, 27.54453087, -0.96515042, 0.10753858, 0.04339517, 0.23459959, -0.00338383, 0.01437615, -0.00680542, 0.00000000, 0.00000000, 0.00000000, 0.00000000
1, 0.7650, 181, 0.05486032, -0.24617881, -0.97717500, -6.75709724, 0.92233050, 0.89649314, -14.72820663, 3.47724032, -46.69691849, 12.99294472, 1.98575568, 27.56862831, -0.96528554, 0.10576474, 0.04367501, 0.23479792, -0.02296421, 0.01582196, 0.00461277, 0.00000000, 0.00000000, 0.00000000, 0.00000000
1, 0.7675, 182, 0.05381776, -0.24493030, -0.98155743, -6.68606949, 0.43612325, 1.03446841, -14.72820663, 3.47724032, -46.69691849, 12.97650623, 1.98656785, 27.57119942, -0.96529555, 0.10562361, 0.04365053, 0.23482504, -0.02191980, 0.01482762, 0.00892685, 0.00000000, 0.00000000, 0.00000000, 0.00000000
1, 0.7700, 183, 0.05337903, -0.24295266, -0.98568165, -6.40003347, 0.23029070, 0.96599060, -15.07758045, 3.65707850, -46.63967514, 12.96074295, 1.98693490, 27.57347679, -0.96530545, 0.10548919, 0.04362341, 0.23484987, -0.02148625, 0.01309415, 0.01297935, 0.00000000, 0.00000000, 0.00000000, 0.00000000
1, 0.7725, 184, 0.05379131, -0.24268030, -0.98919916, -5.83078337, -0.32218128, 1.03860724, -15.07758045, 3.65707850, -46.63967514, 12.94639111, 1.98594248, 27.57558632, -0.96531421, 0.10536955, 0.04358758, 0.23487408, -0.02192578, 0.01304524, 0.01643724, 0.00000000, 0.00000000, 0.00000000, 0.00000000
1, 0.7750, 185, 0.05379131, -0.24268030, -0.98919916, -5.83078337, -0.32218128, 1.03860724, -15.07758045, 3.65707850, -46.63967514, 12.93204403, 1.98494995, 27.57771492, -0.96532297, 0.10524995, 0.04355178, 0.23489846, -0.02194308, 0.01328901, 0.01638066, 0.00000000, 0.00000000, 0.00000000, 0.00000000
1, 0.7775, 186, 0.05006036, -0.23815186, -0.99395996, -3.98091483, -1.07516873, 0.98305655, -15.07758045, 3.65707850, -46.63967514, 12.92222023, 1.98214936, 27.57924652, -0.96532857, 0.10517245, 0.04350948, 0.23491783, -0.01827431, 0.00889970, 0.02108559, 0.00000000, 0.00000000, 0.00000000, 0.00000000
1, 0.7800, 187, 0.05006036, -0.23815186, -0.99395996, -3.98091483, -1.07516873, 0.98305655, -15.07758045, 3.65707850, -46.63967514, 12.91240025, 1.97935069, 27.58076668, -0.96533424, 0.10509498, 0.04346719, 0.23493715, -0.01832313, 0.00906629, 0.02104570, 0.00000000, 0.00000000, 0.00000000, 0.00000000
1, 0.7825, 188, 0.04799387, -0.23656908, -0.99482924, -2.84145212, -1.90145898, 0.98974526, -15.48518562, 3.95681381, -47.04037476, 12.90538216, 1.97451258, 27.58183670, -0.96533805, 0.10504553, 0.04341307, 0.23495360, -0.01634348, 0.00759720, 0.02188155, 0.00000000, 0.00000000, 0.00000000, 0.00000000
1, 0.7850, 189, 0.04799387, -0.23656908, -0.99482924, -2.84145212, -1.90145898, 0.98974526, -15.48518562, 3.95681381, -47.04037476, 12.89836693, 1.96967697, 27.58289528, -0.96534193, 0.10499610, 0.04335895, 0.23496997, -0.01642782, 0.00771579, 0.02185136, 0.00000000, 0.00000000, 0.00000000, 0.00000000
1, 0.7875, 190, 0.04445829, -0.23560266, -0.99511766, -1.91865313, -1.96650219, 0.99901974, -15.48518562, 3.95681381, -47.04037476, 12.89364624, 1.96464610, 27.58392525, -0.96534359, 0.10496642, 0.04330787, 0.23498538, -0.01298077, 0.00682733, 0.02212272, 0.00000000, 0.00000000, 0.00000000, 0.00000000
1, 0.7900, 191, 0.04286139, -0.23159248, -0.99523062, -1.63482094, -1.96519446, 1.00200832, -15.48518562, 3.95681381, -47.04037476, 12.88952732, 1.95959985, 27.58494186, -0.96534491, 0.10494186, 0.04325789, 0.23500049, -0.01147217, 0.00288590, 0.02219803, 0.00000000, 0.00000000, 0.00000000, 0.00000000
1, 0.7925, 192, 0.04149618, -0.23026969, -0.99378139, -1.35098886, -1.96388674, 1.00499701, -15.48518562, 3.95681381, -47.04037476, 12.88608837, 1.95453954, 27.58594513, -0.96534550, 0.10492304, 0.04320916, 0.23501521, -0.01019115, 0.00162935, 0.02072865, 0.00000000, 0.00000000, 0.00000000, 0.00000000
1, 0.7950, 193, 0.03927878, -0.22882636, -0.99246556, -1.20941710, -1.89393926, 1.00693023, -15.48518562, 3.95681381, -47.04037476, 12.88296509, 1.94959772, 27.58698654, -0.96534580, 0.10490663, 0.04316212, 0.23503007, -0.00805622, 0.00024612, 0.01939572, 0.00000000, 0.00000000, 0.00000000, 0.00000000
1, 0.7975, 194, 0.03814062, -0.22641632, -0.99003142, -0.99688756, -1.82366502, 1.00961065, -15.33961201, 4.40641689, -46.86864471, 12.88030148, 1.94481277, 27.58808708, -0.96534556, 0.10489376, 0.04311740, 0.23504505, -0.00699465, -0.00210516, 0.01693780, 0.00000000, 0.00000000, 0.00000000, 0.00000000
1, 0.8000, 195, 0.03713913, -0.22545944, -0.98833656, -0.71691269, -1.75528371, 1.22348821, -15.33961201, 4.40641689, -46.86864471, 12.87833405, 1.94004893, 27.58975410, -0.96534348, 0.10488648, 0.04307479, 0.23506452, -0.00607144, -0.00301938, 0.01522984, 0.00000000, 0.00000000, 0.00000000, 0.00000000
1, 0.8025, 196, 0.03281817, -0.22501433, -0.98450714, -0.64664358, -1.61637008, 1.22511303, -15.33961201, 4.40641689, -46.86864471, 12.87655163, 1.93547904, 27.59152031, -0.96534109, 0.10488032, 0.04303429, 0.23508456, -0.00181944, -0.00341256, 0.01140056, 0.00000000, 0.00000000, 0.00000000, 0.00000000
1, 0.8050, 197, 0.03145290, -0.22222936, -0.98341084, -0.50789577, -1.68722975, 1.43661857, -15.33961201, 4.40641689, -46.86864471, 12.87504673, 1.93057156, 27.59377861, -0.96533740, 0.10487702, 0.04299197, 0.23510900, -0.00053667, -0.00616620, 0.01028331, 0.00000000, 0.00000000, 0.00000000, 0.00000000
1, 0.8075, 198, 0.02801892, -0.22395551, -0.98153108, -0.22557907, -1.61736858, 1.51019597, -15.33961201, 4.40641689, -46.86864471, 12.87431717, 1.92565644, 27.59627533, -0.96533251, 0.10488018, 0.04295139, 0.23513514, 0.00281682, -0.00441744, 0.00841761, 0.00000000, 0.00000000, 0.00000000, 0.00000000
1, 0.8125, 199, 0.02634378, -0.22389127, -0.97486871, -0.01738861, -1.61934781, 1.79303753, -14.99023819, 3.80694604, -46.75416183, 12.87379169, 1.91533744, 27.60246277, -0.96531928, 0.10489494, 0.04286912, 0.23519760, 0.00433074, -0.00443556, 0.00175174, 0.00000000, 0.00000000, 0.00000000, 0.00000000
1, 0.8150, 200, 0.02374298, -0.22014414, -0.97281045, 0.19011289, -1.48274028, 2.07675648, -14.99023819, 3.80694604, -46.75416183, 12.87411118, 1.91030407, 27.60644341, -0.96531039, 0.10490664, 0.04283106, 0.23523600, 0.00684956, -0.00817679, -0.00032244, 0.00000000, 0.00000000, 0.00000000, 0.00000000
1, 0.8175, 201, 0.02284930, -0.22419129, -0.96884459, 0.40333146, -1.55105305, 2.07855916, -14.99023819, 3.80694604, -46.75416183, 12.87514496, 1.90508687, 27.61041451, -0.96530080, 0.10492474, 0.04279291, 0.23527418, 0.00766334, -0.00412498, -0.00426114, 0.00000000, 0.00000000, 0.00000000, 0.00000000
1, 0.8200, 202, 0.02296998, -0.22382620, -0.96883982, 0.47077677, -1.55294609, 2.28975630, -14.99023819, 3.80694604, -46.75416183, 12.87635803, 1.89976895, 27.61492157, -0.96528989, 0.10494435, 0.04275477, 0.23531693, 0.00744993, -0.00451133, -0.00426666, 0.00000000, 0.00000000, 0.00000000, 0.00000000
1, 0.8225, 203, 0.02401669, -0.22677818, -0.96434957, 0.39644340, -1.34687281, 2.43062568, -15.28138542, 4.37644243, -46.03862762, 12.87752056, 1.89490211, 27.61986732, -0.96527821, 0.10496245, 0.04272073, 0.23536296, 0.00633089, -0.00155385, -0.00874096, 0.00000000, 0.00000000, 0.00000000, 0.00000000
1, 0.8250, 204, 0.01985318, -0.22618973, -0.96319151, 0.32631183, -1.27716613, 2.36016750, -15.28138542, 4.37644243, -46.03862762, 12.87849903, 1.89008820, 27.62471771, -0.96526688, 0.10497893, 0.04268667, 0.23540819, 0.01041373, -0.00215282, -0.00988952, 0.00000000, 0.00000000, 0.00000000, 0.00000000
1, 0.8275, 205, 0.01946210, -0.22596201, -0.96137178, 0.17936760, -1.21148682, 2.63971210, -15.28138542, 4.37644243, -46.03862762, 12.87913895, 1.88527334, 27.63027382, -0.96525449, 0.10499229, 0.04265255, 0.23545949, 0.01072592, -0.00238147, -0.01170961, 0.00000000, 0.00000000, 0.00000000, 0.00000000
1, 0.8300, 206, 0.02026042, -0.22708952, -0.95699203, 0.03524718, -1.00500035, 2.70968413, -15.28138542, 4.37644243, -46.03862762, 12.87950420, 1.88092542, 27.63611794, -0.96524173, 0.10500227, 0.04262207, 0.23551285, 0.00986409, -0.00123540, -0.01608596, 0.00000000, 0.00000000, 0.00000000, 0.00000000
1, 0.8325, 207, 0.02051415, -0.22952008, -0.95712954, -0.24927399, -0.86772114, 2.70757294, -15.28138542, 4.37644243, -46.03862762, 12.87924480, 1.87693083, 27.64204216, -0.96522939, 0.10500622, 0.04259335, 0.23556678, 0.00954023, 0.00119818, -0.01593844, 0.00000000, 0.00000000, 0.00000000, 0.00000000
1, 0.8350, 208, 0.01927945, -0.22880113, -0.95616961, -0.53413951, -0.66114861, 2.70590091, -15.60164356, 4.34646845, -46.89726639, 12.87825775, 1.87340260, 27.64808464, -0.96521753, 0.10500302, 0.04256716, 0.23562153, 0.01071611, 0.00050112, -0.01690489, 0.00000000, 0.00000000, 0.00000000, 0.00000000
1, 0.8375, 209, 0.01794909, -0.23099127, -0.95645058, -0.74839157, -0.38495561, 2.70541477, -15.60164356, 4.34646845, -46.89726639, 12.87682343, 1.87049186, 27.65427971, -0.96520585, 0.10499471, 0.04254540, 0.23567711, 0.01199489, 0.00271363, -0.01661466, 0.00000000, 0.00000000, 0.00000000, 0.00000000
1, 0.8725, 210, 0.01115760, -0.22755125, -0.97816604, -0.99062216, -0.01241503, 0.10907073, -15.36872768, 4.31649780, -46.78278351, 12.83834457, 1.84040022, 27.69747925, -0.96514916, 0.10471749, 0.04225249, 0.23608476, 0.01820030, -0.00020139, 0.00493365, 0.00000000, 0.00000000, 0.00000000, 0.00000000
1, 0.8750, 211, 0.01143901, -0.22801565, -0.98084033, -1.05854940, -0.14984880, -0.03285410, -15.36872768, 4.31649780, -46.78278351, 12.83558750, 1.83799446, 27.69683647, -0.96515280, 0.10469954, 0.04222598, 0.23608272, 0.01786941, 0.00029412, 0.00759776, 0.00000000, 0.00000000, 0.00000000, 0.00000000
1, 0.8775, 212, 0.01178878, -0.22668394, -0.97997320, -1.19764161, -0.00969569, -0.24392074, -15.36872768, 4.31649780, -46.78278351, 12.83238029, 1.83638811, 27.69581604, -0.96515769, 0.10467626, 0.04220492, 0.23607689, 0.01749407, -0.00097819, 0.00670866, 0.00000000, 0.00000000, 0.00000000, 0.00000000
1, 0.8800, 213, 0.01236804, -0.22401984, -0.97836232, -1.26660228, 0.06075086, -0.38452905, -15.36872768, 4.31649780, -46.78278351, 12.82883835, 1.83534718, 27.69454575, -0.96516341, 0.10464908, 0.04218771, 0.23606850, 0.01690127, -0.00357282, 0.00506646, 0.00000000, 0.00000000, 0.00000000, 0.00000000
1, 0.8825, 214, 0.01287819, -0.22485822, -0.97982043, -1.47596383, 0.06199013, -0.59722054, -15.36872768, 4.31649780, -46.78278351, 12.82486534, 1.83474445, 27.69280815, -0.96517056, 0.10461751, 0.04217286, 0.23605593, 0.01637645, -0.00267538, 0.00651222, 0.00000000, 0.00000000, 0.00000000, 0.00000000
1, 0.8850, 215, 0.01299228, -0.22303484, -0.97968233, -1.68801117, 0.13104276, -0.66917324, -15.25226974, 4.22657490, -46.52518845, 12.82029533, 1.83451235, 27.69097900, -0.96517843, 0.10458016, 0.04215982, 0.23604241, 0.01625874, -0.00442021, 0.00634544, 0.00000000, 0.00000000, 0.00000000, 0.00000000
1, 0.8875, 216, 0.01078628, -0.22060986, -0.97945255, -1.75545657, 0.13293593, -0.88037032, -15.25226974, 4.22657490, -46.52518845, 12.81545544, 1.83438838, 27.68864441, -0.96518767, 0.10454052, 0.04214668, 0.23602466, 0.01846325, -0.00676157, 0.00608906, 0.00000000, 0.00000000, 0.00000000, 0.00000000
1, 0.8900, 217, 0.01174564, -0.21976413, -0.97845864, -2.03798079, 0.34098855, -1.02234244, -15.25226974, 4.22657490, -46.52518845, 12.80995560, 1.83506751, 27.68612289, -0.96519798, 0.10449372, 0.04213877, 0.23600480, 0.01751856, -0.00750786, 0.00506670, 0.00000000, 0.00000000, 0.00000000, 0.00000000
1, 0.8925, 218, 0.01369457, -0.21781087, -0.97877824, -2.25237036, 0.40856114, -0.95399517, -15.25226974, 4.22657490, -46.52518845, 12.80386829, 1.83599353, 27.68381882, -0.96520835, 0.10444135, 0.04213193, 0.23598669, 0.01558493, -0.00935925, 0.00534648, 0.00000000, 0.00000000, 0.00000000, 0.00000000
1, 0.8950, 219, 0.01381035, -0.21744870, -0.97840881, -2.25305915, 0.54714805, -0.95311749, -15.25226974, 4.22657490, -46.52518845, 12.79778481, 1.83728373, 27.68158913, -0.96521860, 0.10438824, 0.04212823, 0.23596890, 0.01549268, -0.00961570, 0.00495181, 0.00000000, 0.00000000, 0.00000000, 0.00000000
1, 0.8975, 220, 0.01516032, -0.21524686, -0.97958648, -2.10645914, 0.55076206, -1.23222315, -15.42695904, 4.70615244, -46.89726639, 12.79198074, 1.83880949, 27.67871284, -0.96522999, 0.10433722, 0.04212650, 0.23594531, 0.01416607, -0.01172537, 0.00609127, 0.00000000, 0.00000000, 0.00000000, 0.00000000
1, 0.9000, 221, 0.01492054, -0.21451390, -0.98007047, -2.03653479, 0.75896925, -1.23015952, -15.42695904, 4.70615244, -46.89726639, 12.78633881, 1.84084868, 27.67597198, -0.96524096, 0.10428645, 0.04212955, 0.23592231, 0.01444006, -0.01236491, 0.00655106, 0.00000000, 0.00000000, 0.00000000, 0.00000000
1, 0.9025, 222, 0.01564914, -0.21366093, -0.98005259, -1.82166326, 0.83072370, -1.36777902, -15.42695904, 4.70615244, -46.89726639, 12.78119850, 1.84316266, 27.67295837, -0.96525204, 0.10423941, 0.04213569, 0.23589654, 0.01375190, -0.01312999, 0.00650761, 0.00000000, 0.00000000, 0.00000000, 0.00000000
1, 0.9050, 223, 0.01674916, -0.21158519, -0.98074865, -1.53700435, 0.90206480, -1.43450141, -15.42695904, 4.70615244, -46.89726639, 12.77666473, 1.84571218, 27.66982269, -0.96526283, 0.10419706, 0.04214497, 0.23586932, 0.01269442, -0.01513230, 0.00717249, 0.00000000, 0.00000000, 0.00000000, 0.00000000
1, 0.9075, 224, 0.01736521, -0.21011765, -0.98157859, -1.18221414, 0.90369952, -1.43076551, -15.42695904, 4.70615244, -46.89726639, 12.77289486, 1.84823811, 27.66671371, -0.96527296, 0.10416116, 0.04215564, 0.23584206, 0.01212012, -0.01654011, 0.00797897, 0.00000000, 0.00000000, 0.00000000, 0.00000000
1, 0.9100, 225, 0.01664486, -0.21291533, -0.98173368, -0.89721119, 0.90574729, -1.49792683, -15.01935387, 3.59713364, -46.38208389, 12.76990318, 1.85073626, 27.66340446, -0.96528274, 0.10413197, 0.04216750, 0.23581284, 0.01288358, -0.01369219, 0.00814215, 0.00000000, 0.00000000, 0.00000000, 0.00000000
1, 0.9125, 226, 0.01872051, -0.20852189, -0.98300427, -0.61034822, 0.76994830, -1.63611591, -15.01935387, 3.59713364, -46.38208389, 12.76733208, 1.85303164, 27.65961838, -0.96529305, 0.10410690, 0.04217809, 0.23577966, 0.01084447, -0.01804888, 0.00937275, 0.00000000, 0.00000000, 0.00000000, 0.00000000
1, 0.9150, 227, 0.01712465, -0.21011627, -0.98182535, -0.25521362, 0.70228970, -1.63281882, -15.01935387, 3.59713364, -46.38208389, 12.76559734, 1.85498285, 27.65573692, -0.96530282, 0.10408965, 0.04218742, 0.23574570, 0.01247765, -0.01641795, 0.00820200, 0.00000000, 0.00000000, 0.00000000, 0.00000000
1, 0.9450, 228, 0.01537541, -0.20653948, -0.98863113, -0.73538953, 0.91898173, -2.68898249, -15.57253265, 4.97591352, -46.46794891, 12.74140835, 1.87450123, 27.59161949, -0.96545833, 0.10386878, 0.04224381, 0.23519541, 0.01454826, -0.01962012, 0.01490956, 0.00000000, 0.00000000, 0.00000000, 0.00000000
1, 0.9475, 229, 0.01683631, -0.20544060, -0.98872185, -0.59402490, 1.26684284, -2.75544381, -14.64085960, 4.25654936, -46.32484055, 12.73899746, 1.87873089, 27.58552933, -0.96547341, 0.10384191, 0.04226895, 0.23514089, 0.01316090, -0.02067796, 0.01498285, 0.00000000, 0.00000000, 0.00000000, 0.00000000
1, 0.9500, 230, 0.01598779, -0.20495230, -0.98921692, -0.30702451, 1.33966422, -2.96246624, -14.64085960, 4.25654936, -46.32484055, 12.73727036, 1.88322186, 27.57899094, -0.96548885, 0.10382042, 0.04229729, 0.23508205, 0.01408641, -0.02113916, 0.01547335, 0.00000000, 0.00000000, 0.00000000, 0.00000000
1, 0.9525, 231, 0.01598779, -0.20495230, -0.98921692, -0.30702451, 1.33966422, -2.96246624, -14.64085960, 4.25654936, -46.32484055, 12.73554420, 1.88771152, 27.57245827, -0.96550423, 0.10379893, 0.04232563, 0.23502328, 0.01416471, -0.02110919, 0.01546921, 0.00000000, 0.00000000, 0.00000000, 0.00000000
1, 0.9550, 232, 0.01757963, -0.20506623, -0.98968029, 0.76085889, 1.34678841, -3.16170859, -14.64085960, 4.25654936, -46.32484055, 12.73656368, 1.89242792, 27.56546021, -0.96551806, 0.10380029, 0.04236108, 0.23495935, 0.01265381, -0.02101474, 0.01593526, 0.00000000, 0.00000000, 0.00000000, 0.00000000
1, 0.9575, 233, 0.01757963, -0.20506623, -0.98968029, 0.76085889, 1.34678841, -3.16170859, -14.64085960, 4.25654936, -46.32484055, 12.73758221, 1.89713836, 27.55849648, -0.96553189, 0.10380165, 0.04239652, 0.23489571, 0.01273601, -0.02103144, 0.01594189, 0.00000000, 0.00000000, 0.00000000, 0.00000000
1, 0.9600, 234, 0.01825392, -0.20412381, -0.98565030, 1.32735229, 1.34866393, -3.08558106, -15.74721718, 4.55628443, -46.26759720, 12.74007702, 1.90185916, 27.55170441, -0.96554393, 0.10381535, 0.04243521, 0.23483296, 0.01215543, -0.02199233, 0.01191690, 0.00000000, 0.00000000, 0.00000000, 0.00000000
1, 0.9625, 235, 0.01825392, -0.20412381, -0.98565030, 1.32735229, 1.34866393, -3.08558106, -15.74721718, 4.55628443, -46.26759720, 12.74256325, 1.90657818, 27.54487991, -0.96555609, 0.10382902, 0.04247385, 0.23476993, 0.01223774, -0.02203408, 0.01192911, 0.00000000, 0.00000000, 0.00000000, 0.00000000
1, 0.9650, 236, 0.02006543, -0.20242381, -0.98475826, 1.53822899, 1.27887130, -2.94347835, -15.74721718, 4.55628443, -46.26759720, 12.74554825, 1.91109276, 27.53836632, -0.96556711, 0.10384718, 0.04251207, 0.23470953, 0.01050752, -0.02377906, 0.01103620, 0.00000000, 0.00000000, 0.00000000, 0.00000000
1, 0.9675, 237, 0.01990264, -0.20147367, -0.98195654, 1.54091537, 1.21105778, -3.08421731, -15.74721718, 4.55628443, -46.26759720, 12.74851990, 1.91551948, 27.53144836, -0.96557897, 0.10386560, 0.04254916, 0.23464583, 0.01075544, -0.02476297, 0.00824350, 0.00000000, 0.00000000, 0.00000000, 0.00000000
1, 0.9700, 238, 0.01941830, -0.20293508, -0.98185414, 1.53939998, 1.27961135, -3.01362824, -15.74721718, 4.55628443, -46.26759720, 12.75153160, 1.92005718, 27.52474213, -0.96559042, 0.10388403, 0.04258744, 0.23458378, 0.01131920, -0.02335167, 0.00816503, 0.00000000, 0.00000000, 0.00000000, 0.00000000
1, 0.9725, 239, 0.02146997, -0.20111483, -0.98071432, 1.39748394, 1.27895749, -3.01512265, -15.45606995, 4.58625889, -46.61105728, 12.75412750, 1.92464256, 27.51803207, -0.96560216, 0.10389886, 0.04262527, 0.23452178, 0.00935077, -0.02520882, 0.00702154, 0.00000000, 0.00000000, 0.00000000, 0.00000000
1, 0.9750, 240, 0.02087956, -0.20049560, -0.98229873, 1.32687032, 1.20933700, -3.01630878, -15.45606995, 4.58625889, -46.61105728, 12.75649929, 1.92903709, 27.51126099, -0.96561432, 0.10391224, 0.04266099, 0.23445956, 0.01001336, -0.02587699, 0.00861566, 0.00000000, 0.00000000, 0.00000000, 0.00000000
1, 0.9775, 241, 0.02196172, -0.20135494, -0.98095202, 1.25357044, 1.20753002, -2.87675619, -15.45606995, 4.58625889, -46.61105728, 12.75869656, 1.93336487, 27.50483513, -0.96562582, 0.10392416, 0.04269609, 0.23440038, 0.00901047, -0.02504669, 0.00728181, 0.00000000, 0.00000000, 0.00000000, 0.00000000
1, 0.9800, 242, 0.02107394, -0.19942784, -0.97888285, 1.11165452, 1.20687616, -2.87825036, -15.45606995, 4.58625889, -46.61105728, 12.76046944, 1.93765855, 27.49841309, -0.96563774, 0.10393259, 0.04273004, 0.23434140, 0.00997901, -0.02699144, 0.00521330, 0.00000000, 0.00000000, 0.00000000, 0.00000000
1, 0.9825, 243, 0.02061084, -0.20087656, -0.98036057, 1.11082804, 1.13684261, -2.80853915, -15.45606995, 4.58625889, -46.61105728, 12.76225376, 1.94171572, 27.49212265, -0.96564937, 0.10394154, 0.04276214, 0.23428376, 0.01050872, -0.02558114, 0.00670995, 0.00000000, 0.00000000, 0.00000000, 0.00000000
1, 0.9850, 244, 0.02146261, -0.20087552, -0.98022616, 1.24957561, 1.06598306, -2.59703350, -14.81554890, 4.25654936, -46.03862762, 12.76437759, 1.94549704, 27.48630333, -0.96565962, 0.10395375, 0.04279304, 0.23423022, 0.00972327, -0.02561697, 0.00658349, 0.00000000, 0.00000000, 0.00000000, 0.00000000
1, 0.9875, 245, 0.02206851, -0.20075442, -0.97997290, 1.25274396, 1.13749647, -2.80704474, -14.81554890, 4.25654936, -46.03862762, 12.76653194, 1.94960523, 27.48001862, -0.96567088, 0.10396573, 0.04282632, 0.23417246, 0.00918971, -0.02577277, 0.00633849, 0.00000000, 0.00000000, 0.00000000, 0.00000000
1, 0.9900, 246, 0.02514385, -0.20353340, -0.98128670, 1.39335179, 0.92879003, -2.66656709, -14.81554890, 4.25654936, -46.03862762, 12.76908302, 1.95319867, 27.47399139, -0.96568120, 0.10398202, 0.04285632, 0.23411720, 0.00617336, -0.02304437, 0.00767161, 0.00000000, 0.00000000, 0.00000000, 0.00000000
1, 0.9925, 247, 0.02565228, -0.20193577, -0.98321140, 1.60388410, 0.92829078, -2.52402568, -14.81554890, 4.25654936, -46.03862762, 12.77211952, 1.95673227, 27.46829605, -0.96569037, 0.10400240, 0.04288711, 0.23406461, 0.00572115, -0.02470428, 0.00959935, 0.00000000, 0.00000000, 0.00000000, 0.00000000
1, 0.9950, 248, 0.02368250, -0.20353590, -0.98143023, 1.81710267, 0.85997832, -2.52222300, -14.81554890, 4.25654936, -46.03862762, 12.77576065, 1.96003616, 27.46260262, -0.96569902, 0.10402838, 0.04291719, 0.23401202, 0.00775356, -0.02315535, 0.00784910, 0.00000000, 0.00000000, 0.00000000, 0.00000000
1, 0.9975, 249, 0.02659903, -0.20219421, -0.98101079, 2.02915001, 0.79092556, -2.45027018, -14.81554890, 4.25654936, -46.32484055, 12.77990913, 1.96322310, 27.45702553, -0.96570694, 0.10405882, 0.04294743, 0.23396036, 0.00489384, -0.02456473, 0.00743145, 0.00000000, 0.00000000, 0.00000000, 0.00000000
1, 1.0000, 250, 0.02783626, -0.20510499, -0.98162383, 2.24236894, 0.72261304, -2.44846749, -14.81554890, 4.64620352, -46.32484055, 12.78468227, 1.96627700, 27.45145607, -0.96571422, 0.10409480, 0.04297783, 0.23390865, 0.00370811, -0.02173833, 0.00807808, 0.00000000, 0.00000000, 0.00000000, 0.00000000
1, 1.0025, 251, 0.02683356, -0.20475806, -0.97969079, 2.31250048, 0.65290636, -2.37800908, -14.81554890, 4.64620352, -46.32484055, 12.78962040, 1.96909070, 27.44602776, -0.96572101, 0.10413262, 0.04300667, 0.23385829, 0.00476531, -0.02215773, 0.00616659, 0.00000000, 0.00000000, 0.00000000, 0.00000000
1, 1.0050, 252, 0.02854948, -0.20791674, -0.97956908, 2.52606344, 0.51530039, -2.37664533, -14.81554890, 4.64620352, -46.32484055, 12.79518700, 1.97161245, 27.44057083, -0.96572733, 0.10417634, 0.04303430, 0.23380774, 0.00309370, -0.01909274, 0.00608128, 0.00000000, 0.00000000, 0.00000000, 0.00000000
1, 1.0075, 253, 0.02962875, -0.20792486, -0.97821558, 2.59736609, 0.44633389, -2.37633705, -14.81554890, 4.64620352, -46.32484055, 12.80093479, 1.97400045, 27.43507767, -0.96573353, 0.10422191, 0.04306114, 0.23375696, 0.00205989, -0.01917423, 0.00474851, 0.00000000, 0.00000000, 0.00000000, 0.00000000
1, 1.0100, 254, 0.03011320, -0.20938784, -0.97761226, 2.59550643, 0.58418077, -2.30530930, -14.81554890, 4.64620352, -46.32484055, 12.80673122, 1.97669482, 27.42986870, -0.96573913, 0.10426714, 0.04309091, 0.23370823, 0.00162412, -0.01780602, 0.00417619, 0.00000000, 0.00000000, 0.00000000, 0.00000000
1, 1.0125, 255, 0.02926146, -0.21036370, -0.97751141, 2.66646433, 0.58450770, -2.30456209, -15.19403839, 4.37644243, -45.98138046, 12.81274033, 1.97936499, 27.42463684, -0.96574450, 0.10431419, 0.04312088, 0.23365924, 0.00252270, -0.01693138, 0.00410820, 0.00000000, 0.00000000, 0.00000000, 0.00000000
1, 1.0150, 256, 0.02985514, -0.21098100, -0.97617006, 2.73742223, 0.58483464, -2.30381489, -15.19403839, 4.37644243, -45.98138046, 12.81894588, 1.98205161, 27.41940117, -0.96574974, 0.10436291, 0.04315139, 0.23361015, 0.00197965, -0.01641160, 0.00279442, 0.00000000, 0.00000000, 0.00000000, 0.00000000
1, 1.0175, 257, 0.03094795, -0.21256509, -0.97543710, 2.66494894, 0.65306103, -2.23397326, -15.19403839, 4.37644243, -45.98138046, 12.82501888, 1.98489511, 27.41436005, -0.96575475, 0.10441010, 0.04318311, 0.23356259, 0.00093845, -0.01492619, 0.00209268, 0.00000000, 0.00000000, 0.00000000, 0.00000000
1, 1.0200, 258, 0.03216143, -0.21378413, -0.97469926, 2.66122890, 0.92875475, -2.09191799, -15.19403839, 4.37644243, -45.98138046, 12.83114338, 1.98835886, 27.40982246, -0.96575868, 0.10445625, 0.04322062, 0.23351863, -0.00021252, -0.01380657, 0.00138435, 0.00000000, 0.00000000, 0.00000000, 0.00000000
1, 1.0225, 259, 0.03399303, -0.21414362, -0.97479630, 2.73535538, 1.00059521, -2.30118179, -15.19403839, 4.37644243, -45.98138046, 12.83746338, 1.99216413, 27.40481186, -0.96576345, 0.10450353, 0.04326097, 0.23347026, -0.00197803, -0.01355462, 0.00150512, 0.00000000, 0.00000000, 0.00000000, 0.00000000
1, 1.0250, 260, 0.03471342, -0.21232072, -0.97440594, 2.73418450, 0.99985528, -2.23103189, -14.49528599, 4.55628443, -46.52518845, 12.84373379, 1.99594808, 27.39999199, -0.96576792, 0.10455036, 0.04330121, 0.23342358, -0.00263128, -0.01548138, 0.00112859, 0.00000000, 0.00000000, 0.00000000, 0.00000000
1, 1.0275, 261, 0.03555834, -0.21463893, -0.97319621, 2.73301363, 0.99911523, -2.16088200, -14.49528599, 4.55628443, -46.52518845, 12.85006237, 1.99971044, 27.39537621, -0.96577185, 0.10459766, 0.04334157, 0.23337857, -0.00340719, -0.01326328, -0.00004328, 0.00000000, 0.00000000, 0.00000000, 0.00000000
1, 1.0300, 262, 0.03678001, -0.21634048, -0.97294861, 2.80293798, 1.20732248, -2.15881824, -14.49528599, 4.55628443, -46.52518845, 12.85662746, 2.00400281, 27.39091301, -0.96577531, 0.10464579, 0.04338701, 0.23333426, -0.00455330, -0.01167138, -0.00025640, 0.00000000, 0.00000000, 0.00000000, 0.00000000
1, 1.0325, 263, 0.03692571, -0.21900676, -0.97406226, 2.87238073, 1.27620280, -2.08748221, -14.49528599, 4.55628443, -46.52518845, 12.86343384, 2.00842190, 27.38667488, -0.96577811, 0.10469562, 0.04343420, 0.23329160, -0.00462511, -0.00912674, 0.00090125, 0.00000000, 0.00000000, 0.00000000, 0.00000000
1, 1.0400, 264, 0.04071256, -0.22216147, -0.97378790, 2.79990721, 1.34442925, -2.01764059, -15.48518562, 3.65707850, -46.84002686, 12.88417053, 2.02239656, 27.37438202, -0.96578532, 0.10484614, 0.04358283, 0.23316632, -0.00816747, -0.00632119, 0.00072345, 0.00000000, 0.00000000, 0.00000000, 0.00000000
1, 1.0425, 265, 0.04230236, -0.22215478, -0.97412872, 2.86921263, 1.20468915, -1.87747109, -15.48518562, 3.65707850, -46.84002686, 12.89103413, 2.02666378, 27.37051582, -0.96578723, 0.10489663, 0.04362919, 0.23312692, -0.00968378, -0.00644600, 0.00108909, 0.00000000, 0.00000000, 0.00000000, 0.00000000
1, 1.0450, 266, 0.04194566, -0.22385618, -0.97439110, 2.72578096, 1.27258873, -1.80837667, -15.48518562, 3.65707850, -46.84002686, 12.89758396, 2.03105211, 27.36681366, -0.96578914, 0.10494418, 0.04367607, 0.23308890, -0.00925134, -0.00485693, 0.00139039, 0.00000000, 0.00000000, 0.00000000, 0.00000000
1, 1.0475, 267, 0.04429483, -0.22675559, -0.97608149, 2.65434098, 1.13293493, -1.73985147, -15.48518562, 3.65707850, -46.84002686, 12.90401840, 2.03513622, 27.36318398, -0.96579099, 0.10499135, 0.04372022, 0.23305181, -0.01153407, -0.00207617, 0.00311843, 0.00000000, 0.00000000, 0.00000000, 0.00000000
1, 1.0500, 268, 0.04342471, -0.22762056, -0.97464257, 2.58290124, 0.99328113, -1.67132652, -15.68899059, 4.46636534, -46.41070557, 12.91030312, 2.03882980, 27.35962677, -0.96579272, 0.10503803, 0.04376084, 0.23301578, -0.01059547, -0.00130921, 0.00171381, 0.00000000, 0.00000000, 0.00000000, 0.00000000
1, 1.0525, 269, 0.04476096, -0.22956987, -0.97378731, 2.44015813, 0.92259371, -1.60310960, -15.68899059, 4.46636534, -46.41070557, 12.91629601, 2.04237580, 27.35618782, -0.96579450, 0.10508253, 0.04379973, 0.23298098, -0.01186750, 0.00054362, 0.00089160, 0.00000000, 0.00000000, 0.00000000, 0.00000000
1, 1.0550, 270, 0.04366616, -0.22932732, -0.97404498, 2.29603815, 1.12908006, -1.53313744, -15.68899059, 4.46636534, -46.41070557, 12.92192745, 2.04634690, 27.35302544, -0.96579617, 0.10512300, 0.04384172, 0.23294824, -0.01070417, 0.00020440, 0.00117520, 0.00000000, 0.00000000, 0.00000000, 0.00000000
1, 1.0575, 271, 0.04394553, -0.22967109, -0.97659677, 2.22425389, 1.05871964, -1.46417344, -15.68899059, 4.46636534, -46.41070557, 12.92736912, 2.05012584, 27.34998131, -0.96579766, 0.10516221, 0.04388180, 0.23291676, -0.01092481, 0.00044140, 0.00375182, 0.00000000, 0.00000000, 0.00000000, 0.00000000
1, 1.0600, 272, 0.04554066, -0.23027049, -0.97718561, 2.15198684, 0.84903246, -1.32593727, -15.68899059, 4.46636534, -46.41070557, 12.93264771, 2.05340838, 27.34714890, -0.96579880, 0.10520099, 0.04391757, 0.23288763, -0.01246434, 0.00094813, 0.00436216, 0.00000000, 0.00000000, 0.00000000, 0.00000000
1, 1.0625, 273, 0.04286667, -0.22978458, -0.97795129, 2.15081596, 0.84829241, -1.25578725, -15.60164356, 4.61623335, -46.26759720, 12.93790054, 2.05655456, 27.34448051, -0.96579963, 0.10523979, 0.04395228, 0.23285998, -0.00973764, 0.00036888, 0.00515495, 0.00000000, 0.00000000, 0.00000000, 0.00000000
1, 1.0650, 274, 0.04435545, -0.23159350, -0.97940260, 2.22012162, 0.70855242, -1.11561763, -15.60164356, 4.61623335, -46.26759720, 12.94338989, 2.05935335, 27.34207535, -0.96579975, 0.10528120, 0.04398480, 0.23283486, -0.01118173, 0.00207651, 0.00663571, 0.00000000, 0.00000000, 0.00000000, 0.00000000
1, 1.0675, 275, 0.04499118, -0.23206386, -0.98122060, 2.28990841, 0.70813930, -1.04472053, -15.60164356, 4.61623335, -46.26759720, 12.94905281, 2.06213093, 27.33986282, -0.96579927, 0.10532404, 0.04401765, 0.23281126, -0.01177413, 0.00244046, 0.00847839, 0.00000000, 0.00000000, 0.00000000, 0.00000000
1, 1.0700, 276, 0.04398882, -0.22988896, -0.97975904, 2.35969567, 0.70772624, -0.97382337, -15.60164356, 4.61623335, -46.26759720, 12.95482349, 2.06483030, 27.33780098, -0.96579838, 0.10536788, 0.04405021, 0.23278898, -0.01072053, 0.00017636, 0.00703127, 0.00000000, 0.00000000, 0.00000000, 0.00000000
1, 1.0725, 277, 0.04375482, -0.23037109, -0.98037434, 2.49796128, 0.49753964, -0.69304568, -15.60164356, 4.61623335, -46.26759720, 12.96095562, 2.06688499, 27.33631134, -0.96579587, 0.10541590, 0.04407860, 0.23277202, -0.01045243, 0.00055093, 0.00767520, 0.00000000, 0.00000000, 0.00000000, 0.00000000
1, 1.0750, 278, 0.04314518, -0.22891036, -0.98073637, 2.56809306, 0.42783311, -0.62258732, -14.66997528, 4.25654936, -46.84002686, 12.96719646, 2.06871271, 27.33498001, -0.96579301, 0.10546523, 0.04410543, 0.23275658, -0.00981193, -0.00101767, 0.00805607, 0.00000000, 0.00000000, 0.00000000, 0.00000000
1, 1.0775, 279, 0.04361035, -0.22806965, -0.97926360, 2.49527502, 0.56535304, -0.55230683, -14.66997528, 4.25654936, -46.84002686, 12.97323513, 2.07085705, 27.33393860, -0.96578979, 0.10551210, 0.04413480, 0.23274335, -0.01023550, -0.00195220, 0.00660212, 0.00000000, 0.00000000, 0.00000000, 0.00000000
1, 1.0825, 280, 0.04261374, -0.22662245, -0.97805095, 2.63436747, 0.42519990, -0.34124020, -14.66997528, 4.25654936, -46.84002686, 12.98551273, 2.07425976, 27.33245277, -0.96578175, 0.10560912, 0.04418701, 0.23272271, -0.00917613, -0.00360052, 0.00543408, 0.00000000, 0.00000000, 0.00000000, 0.00000000
1, 1.0850, 281, 0.04369622, -0.22516641, -0.97729337, 2.49245119, 0.42454603, -0.34273455, -14.66997528, 4.25654936, -46.84002686, 12.99140167, 2.07600451, 27.33191299, -0.96577752, 0.10565536, 0.04421317, 0.23271415, -0.01022602, -0.00515204, 0.00468923, 0.00000000, 0.00000000, 0.00000000, 0.00000000
1, 1.0875, 282, 0.04270338, -0.22627585, -0.97573680, 2.41880679, 0.49203247, -0.20274292, -15.22315407, 4.07670736, -46.61105728, 12.99717903, 2.07780457, 27.33173943, -0.96577269, 0.10570040, 0.04423989, 0.23270866, -0.00919743, -0.00413150, 0.00316569, 0.00000000, 0.00000000, 0.00000000, 0.00000000
1, 1.0900, 283, 0.04330922, -0.22469255, -0.97583640, 2.34819341, 0.42241210, -0.20392893, -15.22315407, 4.07670736, -46.61105728, 13.00266933, 2.07949162, 27.33151627, -0.96576822, 0.10574328, 0.04426505, 0.23270299, -0.00977406, -0.00580842, 0.00327708, 0.00000000, 0.00000000, 0.00000000, 0.00000000
1, 1.0925, 284, 0.04477217, -0.22371429, -0.97604960, 2.41612053, 0.55984586, -0.06200409, -15.22315407, 4.07670736, -46.61105728, 13.00829315, 2.08150363, 27.33167458, -0.96576285, 0.10578644, 0.04429355, 0.23270014, -0.01120252, -0.00688316, 0.00350371, 0.00000000, 0.00000000, 0.00000000, 0.00000000
1, 1.0950, 285, 0.04197551, -0.22493505, -0.97634470, 2.27468657, 0.69851893, -0.13277073, -15.22315407, 4.07670736, -46.61105728, 13.01362419, 2.08372593, 27.33174896, -0.96575797, 0.10582676, 0.04432316, 0.23269649, -0.00836795, -0.00575444, 0.00383605, 0.00000000, 0.00000000, 0.00000000, 0.00000000
1, 1.0975, 286, 0.04316400, -0.22409748, -0.97425312, 2.20152426, 0.90533215, -0.06205140, -15.22315407, 4.07670736, -46.61105728, 13.01876640, 2.08646798, 27.33209229, -0.96575278, 0.10586430, 0.04435700, 0.23269467, -0.00950272, -0.00666685, 0.00175829, 0.00000000, 0.00000000, 0.00000000, 0.00000000
1, 1.1000, 287, 0.04399083, -0.22301465, -0.97252983, 2.13091040, 0.83571190, -0.06323742, -15.57253265, 4.61623335, -46.41070557, 13.02367020, 2.08911371, 27.33239746, -0.96574783, 0.10590004, 0.04438951, 0.23269269, -0.01027852, -0.00782262, 0.00004725, 0.00000000, 0.00000000, 0.00000000, 0.00000000
1, 1.1025, 288, 0.04400350, -0.22337265, -0.97338361, 2.12973952, 0.83497185, 0.00691257, -15.57253265, 4.61623335, -46.41070557, 13.02856922, 2.09172583, 27.33285904, -0.96574259, 0.10593576, 0.04442188, 0.23269206, -0.01024805, -0.00755245, 0.00092392, 0.00000000, 0.00000000, 0.00000000, 0.00000000
1, 1.1050, 289, 0.04385184, -0.22521845, -0.97072607, 2.05761051, 0.83390492, 0.07631537, -15.57253265, 4.61623335, -46.41070557, 13.03342533, 2.09428644, 27.33349609, -0.96573699, 0.10597114, 0.04445389, 0.23269300, -0.01004427, -0.00577346, -0.00170176, 0.00000000, 0.00000000, 0.00000000, 0.00000000
1, 1.1075, 290, 0.04484558, -0.22630183, -0.97181416, 2.19835591, 0.83381873, 0.14795971, -15.57253265, 4.61623335, -46.41070557, 13.03869438, 2.09681463, 27.33430862, -0.96573067, 0.10601002, 0.04448663, 0.23269528, -0.01099700, -0.00478558, -0.00058785, 0.00000000, 0.00000000, 0.00000000, 0.00000000
1, 1.1100, 291, 0.04470285, -0.22643639, -0.97023690, 2.34061646, 0.76517904, 0.14901522, -15.57253265, 4.61623335, -46.41070557, 13.04434586, 2.09915495, 27.33510017, -0.96572399, 0.10605250, 0.04451853, 0.23269740, -0.01080901, -0.00473758, -0.00214025, 0.00000000, 0.00000000, 0.00000000, 0.00000000
1, 1.1125, 292, 0.04445750, -0.22936232, -0.96941322, 2.33930826, 0.55581874, 0.28799868, -15.39784336, 4.34646845, -46.58243561, 13.05015182, 2.10090017, 27.33610535, -0.96571672, 0.10609743, 0.04454595, 0.23270187, -0.01053094, -0.00190533, -0.00292227, 0.00000000, 0.00000000, 0.00000000, 0.00000000
1, 1.1150, 293, 0.04468787, -0.22973533, -0.96831858, 2.33965278, 0.48652530, 0.28755984, -15.39784336, 4.34646845, -46.58243561, 13.05598259, 2.10250425, 27.33705902, -0.96570957, 0.10614289, 0.04457218, 0.23270606, -0.01073026, -0.00162485, -0.00399143, 0.00000000, 0.00000000, 0.00000000, 0.00000000
1, 1.1175, 294, 0.04563174, -0.22962993, -0.96599352, 2.40992141, 0.62543911, 0.28918469, -15.39784336, 4.34646845, -46.58243561, 13.06201363, 2.10445809, 27.33810043, -0.96570200, 0.10618928, 0.04460184, 0.23271053, -0.01163348, -0.00181894, -0.00629475, 0.00000000, 0.00000000, 0.00000000, 0.00000000
1, 1.1200, 295, 0.04452560, -0.23183116, -0.96481222, 2.47957087, 0.41640568, 0.42891532, -15.39784336, 4.34646845, -46.58243561, 13.06834507, 2.10576701, 27.33935738, -0.96569371, 0.10623943, 0.04462688, 0.23271734, -0.01050126, 0.00028172, -0.00743438, 0.00000000, 0.00000000, 0.00000000, 0.00000000
1, 1.1575, 296, 0.04953051, -0.23851736, -0.96357560, 0.90368640, -0.15623510, 1.46121657, -15.28138542, 4.55628443, -46.29621887, 13.13556957, 2.11936784, 27.37694359, -0.96555591, 0.10676311, 0.04491291, 0.23299411, -0.01526556, 0.00583498, -0.00837202, 0.00000000, 0.00000000, 0.00000000, 0.00000000
1, 1.1600, 297, 0.05001901, -0.23924682, -0.96345264, 0.90451288, -0.08620160, 1.39150536, -15.28138542, 4.55628443, -46.29621887, 13.13851929, 2.11949325, 27.38025856, -0.96554643, 0.10678640, 0.04492305, 0.23302077, -0.01575154, 0.00651505, -0.00848038, 0.00000000, 0.00000000, 0.00000000, 0.00000000
1, 1.1625, 298, 0.05135608, -0.24143936, -0.96259928, 0.97299159, -0.29597506, 1.60138607, -15.01935387, 3.83692050, -46.38208389, 13.14169121, 2.11886954, 27.38394356, -0.96553594, 0.10681298, 0.04492769, 0.23305120, -0.01709709, 0.00865851, -0.00931262, 0.00000000, 0.00000000, 0.00000000, 0.00000000
1, 1.1650, 299, 0.05148491, -0.24058197, -0.96331990, 1.04498315, -0.50352842, 1.60081673, -15.01935387, 3.83692050, -46.38208389, 13.14492607, 2.11766243, 27.38749886, -0.96552563, 0.10684135, 0.04492742, 0.23308110, -0.01724900, 0.00774182, -0.00858526, 0.00000000, 0.00000000, 0.00000000, 0.00000000
1, 1.1675, 300, 0.05062990, -0.24155979, -0.96297592, 0.97402507, -0.50385535, 1.60006952, -15.01935387, 3.83692050, -46.38208389, 13.14805508, 2.11642838, 27.39103317, -0.96551538, 0.10686887, 0.04492670, 0.23311090, -0.01641458, 0.00866835, -0.00890950, 0.00000000, 0.00000000, 0.00000000, 0.00000000
1, 1.1700, 301, 0.05088842, -0.24106303, -0.96418375, 0.97319853, -0.57388890, 1.66978073, -15.01935387, 3.83692050, -46.38208389, 13.15111446, 2.11495590, 27.39470863, -0.96550500, 0.10689627, 0.04492395, 0.23314217, -0.01670212, 0.00811242, -0.00769417, 0.00000000, 0.00000000, 0.00000000, 0.00000000
1, 1.1725, 302, 0.05273269, -0.24178052, -0.96513462, 0.90258503, -0.64350927, 1.66859472, -15.01935387, 3.83692050, -46.38208389, 13.15401554, 2.11341810, 27.39830017, -0.96549475, 0.10692246, 0.04492026, 0.23317283, -0.01857593, 0.00877485, -0.00673381, 0.00000000, 0.00000000, 0.00000000, 0.00000000
1, 1.1750, 303, 0.05137125, -0.24301437, -0.96334136, 0.83162695, -0.64383620, 1.66784751, -15.39784336, 4.28652334, -46.43932724, 13.15684223, 2.11182809, 27.40191460, -0.96548468, 0.10694817, 0.04491601, 0.23320378, -0.01723719, 0.00997084, -0.00850569, 0.00000000, 0.00000000, 0.00000000, 0.00000000
1, 1.1775, 304, 0.05209005, -0.24216726, -0.96259415, 0.90175861, -0.71354276, 1.73830569, -15.39784336, 4.28652334, -46.43932724, 13.15977573, 2.11001348, 27.40565681, -0.96547419, 0.10697517, 0.04491020, 0.23323600, -0.01798552, 0.00907799, -0.00924940, 0.00000000, 0.00000000, 0.00000000, 0.00000000
1, 1.1800, 305, 0.05183231, -0.24144502, -0.96174109, 0.83066303, -0.92249006, 1.80639207, -15.39784336, 4.28652334, -46.43932724, 13.16247272, 2.10759211, 27.40943146, -0.96546376, 0.10700143, 0.04489883, 0.23326918, -0.01776763, 0.00831452, -0.01009674, 0.00000000, 0.00000000, 0.00000000, 0.00000000
1, 1.1825, 306, 0.04977813, -0.24156083, -0.96311027, 0.68723166, -0.85459054, 1.87548649, -15.39784336, 4.28652334, -46.43932724, 13.16482830, 2.10522223, 27.41344070, -0.96545321, 0.10702462, 0.04488742, 0.23330444, -0.01575859, 0.00838209, -0.00871321, 0.00000000, 0.00000000, 0.00000000, 0.00000000
1, 1.1850, 307, 0.04956618, -0.24227349, -0.96530771, 0.75818974, -0.85426360, 1.87623358, -15.39784336, 4.28652334, -46.43932724, 13.16735744, 2.10282803, 27.41741753, -0.96544254, 0.10704933, 0.04487614, 0.23333935, -0.01559464, 0.00903870, -0.00650251, 0.00000000, 0.00000000, 0.00000000, 0.00000000
1, 1.1875, 308, 0.04991274, -0.24240592, -0.96384466, 0.82935464, -1.13185048, 1.94537544, -14.37882805, 4.07670736, -46.29621887, 13.17003345, 2.09965372, 27.42147446, -0.96543157, 0.10707686, 0.04485866, 0.23337570, -0.01599242, 0.00913372, -0.00795711, 0.00000000, 0.00000000, 0.00000000, 0.00000000
1, 1.1900, 309, 0.04965218, -0.24278204, -0.96251422, 0.82935464, -1.13185048, 1.94537544, -14.37882805, 4.07670736, -46.29621887, 13.17273617, 2.09647346, 27.42554665, -0.96542042, 0.10710463, 0.04484120, 0.23341213, -0.01578359, 0.00947116, -0.00927585, 0.00000000, 0.00000000, 0.00000000, 0.00000000
1, 1.1925, 310, 0.04919064, -0.24228022, -0.96458393, 0.75605482, -1.13365757, 2.08492804, -14.37882805, 4.07670736, -46.29621887, 13.17521191, 2.09317803, 27.42998505, -0.96540880, 0.10713059, 0.04482266, 0.23345190, -0.01538539, 0.00891479, -0.00720003, 0.00000000, 0.00000000, 0.00000000, 0.00000000
1, 1.1950, 311, 0.04955640, -0.24276674, -0.96446079, 0.82852823, -1.20188403, 2.01508641, -14.37882805, 4.07670736, -46.29621887, 13.17787933, 2.08976007, 27.43424988, -0.96539730, 0.10715847, 0.04480332, 0.23349024, -0.01581038, 0.00935629, -0.00731281, 0.00000000, 0.00000000, 0.00000000, 0.00000000
1, 1.2225, 312, 0.04334747, -0.24728480, -0.96410441, 0.54690039, -1.41033220, 1.94063139, -14.46617508, 4.31649780, -46.46794891, 13.20882607, 2.04917836, 27.48088455, -0.96526974, 0.10748518, 0.04456859, 0.23391207, -0.01030838, 0.01334498, -0.00752732, 0.00000000, 0.00000000, 0.00000000, 0.00000000
1, 1.2250, 313, 0.04261922, -0.24679720, -0.96447617, 0.47759527, -1.27059197, 1.80046201, -14.46617508, 4.31649780, -46.46794891, 13.21083927, 2.04551244, 27.48474693, -0.96525967, 0.10750824, 0.04454547, 0.23394750, -0.00964516, 0.01282049, -0.00715053, 0.00000000, 0.00000000, 0.00000000, 0.00000000
1, 1.2275, 314, 0.04323494, -0.24715763, -0.96483457, 0.33519721, -1.41057289, 1.86823988, -15.28138542, 4.07670736, -46.78278351, 13.21249866, 2.04148793, 27.48867226, -0.96524972, 0.10752904, 0.04451868, 0.23398401, -0.01033205, 0.01315009, -0.00678755, 0.00000000, 0.00000000, 0.00000000, 0.00000000
1, 1.2300, 315, 0.04350778, -0.24750531, -0.96690017, 0.40767065, -1.47879922, 1.79839826, -15.28138542, 4.07670736, -46.78278351, 13.21430874, 2.03734446, 27.49234200, -0.96524018, 0.10755149, 0.04449096, 0.23401842, -0.01068299, 0.01345446, -0.00471607, 0.00000000, 0.00000000, 0.00000000, 0.00000000
1, 1.2325, 316, 0.04118360, -0.24666250, -0.96656346, 0.48014411, -1.54702580, 1.72855663, -15.28138542, 4.07670736, -46.78278351, 13.21625137, 2.03296161, 27.49578476, -0.96523094, 0.10757561, 0.04446128, 0.23405111, -0.00843431, 0.01258006, -0.00504603, 0.00000000, 0.00000000, 0.00000000, 0.00000000
1, 1.2350, 317, 0.04276115, -0.24690680, -0.96593386, 0.41118339, -1.47657919, 1.58794832, -15.28138542, 4.07670736, -46.78278351, 13.21807098, 2.02894878, 27.49892235, -0.96522242, 0.10759805, 0.04443417, 0.23408090, -0.01008007, 0.01279647, -0.00567378, 0.00000000, 0.00000000, 0.00000000, 0.00000000
1, 1.2375, 318, 0.04168677, -0.24640839, -0.96776968, 0.48530975, -1.40473878, 1.37868428, -15.28138542, 4.07670736, -46.78278351, 13.22005939, 2.02520704, 27.50158501, -0.96521479, 0.10762154, 0.04440925, 0.23410633, -0.00907610, 0.01225316, -0.00383222, 0.00000000, 0.00000000, 0.00000000, 0.00000000
1, 1.2400, 319, 0.03910739, -0.24752253, -0.96611530, 0.55613023, -1.61303222, 1.44826496, -15.51430130, 4.22657490, -46.72553635, 13.22223759, 2.02075124, 27.50425148, -0.96520692, 0.10764810, 0.04437871, 0.23413244, -0.00656984, 0.01333929, -0.00546680, 0.00000000, 0.00000000, 0.00000000, 0.00000000
1, 1.2425, 320, 0.03860911, -0.24728635, -0.96539140, 0.55730116, -1.61229217, 1.37811494, -15.51430130, 4.22657490, -46.72553635, 13.22441864, 2.01632285, 27.50673294, -0.96519941, 0.10767473, 0.04434823, 0.23415700, -0.00614675, 0.01306961, -0.00618465, 0.00000000, 0.00000000, 0.00000000, 0.00000000
1, 1.2450, 321, 0.03775649, -0.24655679, -0.96564144, 0.55847210, -1.61155212, 1.30796504, -15.51430130, 4.22657490, -46.72553635, 13.22657585, 2.01190352, 27.50904274, -0.96519226, 0.10770118, 0.04431763, 0.23418008, -0.00537189, 0.01230141, -0.00593037, 0.00000000, 0.00000000, 0.00000000, 0.00000000
1, 1.2475, 322, 0.03579565, -0.24693303, -0.96482283, 0.77368814, -1.60909128, 1.16990662, -15.51430130, 4.22657490, -46.72553635, 13.22927284, 2.00747132, 27.51099014, -0.96518528, 0.10773236, 0.04428767, 0.23419991, -0.00348606, 0.01263593, -0.00673323, 0.00000000, 0.00000000, 0.00000000, 0.00000000
1, 1.2500, 323, 0.03434407, -0.24595492, -0.96593094, 0.70273006, -1.60941815, 1.16915941, -15.51430130, 4.22657490, -46.72553635, 13.23174381, 2.00297356, 27.51291847, -0.96517861, 0.10776177, 0.04425669, 0.23421976, -0.00211607, 0.01160882, -0.00561949, 0.00000000, 0.00000000, 0.00000000, 0.00000000
1, 1.2525, 324, 0.03323376, -0.24596530, -0.96497506, 0.63177192, -1.60974514, 1.16841221, -15.51430130, 3.08758187, -46.46794891, 13.23406696, 1.99842060, 27.51478004, -0.96517229, 0.10779008, 0.04422488, 0.23423916, -0.00108247, 0.01158472, -0.00656553, 0.00000000, 0.00000000, 0.00000000, 0.00000000
1, 1.2550, 325, 0.03053490, -0.24634720, -0.96368128, 0.56467122, -1.67714548, 0.95677620, -15.51430130, 3.08758187, -46.46794891, 13.23628712, 1.99368382, 27.51598740, -0.96516722, 0.10781816, 0.04419070, 0.23425327, 0.00153740, 0.01193571, -0.00784349, 0.00000000, 0.00000000, 0.00000000, 0.00000000
1, 1.2575, 326, 0.03017035, -0.24573810, -0.96392494, 0.42192867, -1.74783266, 1.02499294, -15.51430130, 3.08758187, -46.46794891, 13.23812199, 1.98872447, 27.51724434, -0.96516252, 0.10784343, 0.04415390, 0.23426819, 0.00181472, 0.01129343, -0.00759787, 0.00000000, 0.00000000, 0.00000000, 0.00000000
1, 1.2600, 327, 0.03041049, -0.24513045, -0.96379483, 0.49371320, -1.67747235, 0.95602900, -15.51430130, 3.08758187, -46.46794891, 13.24010754, 1.98399007, 27.51831627, -0.96515799, 0.10786958, 0.04411913, 0.23428121, 0.00149240, 0.01065207, -0.00772713, 0.00000000, 0.00000000, 0.00000000, 0.00000000
1, 1.2625, 328, 0.02920968, -0.24426943, -0.96538639, 0.42241064, -1.60850585, 0.95572066, -15.51430130, 3.08758187, -46.46794891, 13.24187946, 1.97935092, 27.51935005, -0.96515375, 0.10789374, 0.04408469, 0.23429395, 0.00260781, 0.00975117, -0.00613278, 0.00000000, 0.00000000, 0.00000000, 0.00000000
1, 1.2650, 329, 0.02774795, -0.24512513, -0.96529371, 0.35227907, -1.53879929, 0.88526237, -16.00924873, 4.40641689, -45.66654968, 13.24357891, 1.97481608, 27.52022743, -0.96515000, 0.10791716, 0.04405084, 0.23430529, 0.00399069, 0.01057788, -0.00621231, 0.00000000, 0.00000000, 0.00000000, 0.00000000
1, 1.2925, 330, 0.01860551, -0.24453685, -0.96566939, 0.00651174, -1.46522021, 0.32076550, -15.33961201, 3.26742387, -46.32484055, 13.25743866, 1.92357874, 27.52232742, -0.96512765, 0.10813956, 0.04365003, 0.23436953, 0.01223832, 0.00974517, -0.00578842, 0.00000000, 0.00000000, 0.00000000, 0.00000000
1, 1.2950, 331, 0.01797055, -0.24284752, -0.96420616, -0.13354445, -1.60372102, 0.24824345, -15.33961201, 3.26742387, -46.32484055, 13.25801277, 1.91833806, 27.52153587, -0.96512824, 0.10815559, 0.04360636, 0.23436800, 0.01278600, 0.00805384, -0.00726034, 0.00000000, 0.00000000, 0.00000000, 0.00000000
1, 1.2975, 332, 0.01822953, -0.24393456, -0.96506220, -0.27614954, -1.46578801, 0.24762678, -15.33961201, 3.26742387, -46.32484055, 13.25831032, 1.91346216, 27.52077484, -0.96512902, 0.10816853, 0.04356523, 0.23436640, 0.01243954, 0.00913021, -0.00640034, 0.00000000, 0.00000000, 0.00000000, 0.00000000
1, 1.3000, 333, 0.01797299, -0.24260235, -0.96444732, -0.34896743, -1.32826817, 0.31790730, -15.33961201, 3.26742387, -46.32484055, 13.25832939, 1.90887034, 27.52021408, -0.96512967, 0.10817842, 0.04352609, 0.23436631, 0.01261772, 0.00780069, -0.00702464, 0.00000000, 0.00000000, 0.00000000, 0.00000000
1, 1.3025, 334, 0.01797299, -0.24260235, -0.96444732, -0.34896743, -1.32826817, 0.31790730, -15.16492653, 4.19660425, -46.29621887, 13.25834751, 1.90428317, 27.51973534, -0.96513021, 0.10818830, 0.04348709, 0.23436691, 0.01253772, 0.00779978, -0.00702725, 0.00000000, 0.00000000, 0.00000000, 0.00000000
1, 1.3050, 335, 0.01603464, -0.24381818, -0.96509421, -0.48571783, -1.18663490, -0.03345931, -15.16492653, 4.19660425, -46.29621887, 13.25826836, 1.89984214, 27.51848793, -0.96513242, 0.10819734, 0.04344838, 0.23436095, 0.01439673, 0.00901261, -0.00637066, 0.00000000, 0.00000000, 0.00000000, 0.00000000
1, 1.3075, 336, 0.01603464, -0.24381818, -0.96509421, -0.48571783, -1.18663490, -0.03345931, -15.16492653, 4.19660425, -46.29621887, 13.25819016, 1.89540756, 27.51729584, -0.96513444, 0.10820634, 0.04340978, 0.23435543, 0.01431937, 0.00901330, -0.00637355, 0.00000000, 0.00000000, 0.00000000, 0.00000000
1, 1.3100, 337, 0.01789073, -0.24367565, -0.96713209, -0.69845456, -0.97899532, -0.10453431, -15.16492653, 4.19660425, -46.29621887, 13.25746059, 1.89178336, 27.51611710, -0.96513718, 0.10820817, 0.04337668, 0.23434944, 0.01239434, 0.00887093, -0.00434664, 0.00000000, 0.00000000, 0.00000000, 0.00000000
1, 1.3125, 338, 0.01789073, -0.24367565, -0.96713209, -0.69845456, -0.97899532, -0.10453431, -15.16492653, 4.19660425, -46.29621887, 13.25672722, 1.88816357, 27.51500130, -0.96513981, 0.10820994, 0.04334367, 0.23434399, 0.01233121, 0.00888281, -0.00435164, 0.00000000, 0.00000000, 0.00000000, 0.00000000
1, 1.3150, 339, 0.01518858, -0.24357212, -0.96571285, -0.69762808, -0.90896189, -0.17424543, -15.36872768, 4.55628443, -46.52518845, 13.25603580, 1.88448250, 27.51382065, -0.96514249, 0.10821220, 0.04331016, 0.23433805, 0.01497311, 0.00879880, -0.00576861, 0.00000000, 0.00000000, 0.00000000, 0.00000000
1, 1.3175, 340, 0.01518858, -0.24357212, -0.96571285, -0.69762808, -0.90896189, -0.17424543, -15.36872768, 4.55628443, -46.52518845, 13.25534248, 1.88080406, 27.51268959, -0.96514511, 0.10821445, 0.04327673, 0.23433250, 0.01490895, 0.00881008, -0.00577343, 0.00000000, 0.00000000, 0.00000000, 0.00000000
1, 1.3200, 341, 0.01400331, -0.24343292, -0.96828270, -0.69514877, -0.69886142, -0.38337889, -15.36872768, 4.55628443, -46.52518845, 13.25457954, 1.87763441, 27.51124001, -0.96514845, 0.10821514, 0.04324712, 0.23432377, 0.01603171, 0.00866859, -0.00320601, 0.00000000, 0.00000000, 0.00000000, 0.00000000
1, 1.3225, 342, 0.01446030, -0.24210970, -0.96631980, -0.76576233, -0.76848185, -0.38456491, -15.36872768, 4.55628443, -46.52518845, 13.25347996, 1.87447560, 27.50978088, -0.96515214, 0.10821299, 0.04321691, 0.23431511, 0.01552517, 0.00737501, -0.00518383, 0.00000000, 0.00000000, 0.00000000, 0.00000000
1, 1.3250, 343, 0.01471924, -0.24222197, -0.96741104, -0.76493585, -0.69844842, -0.45427606, -15.36872768, 4.55628443, -46.52518845, 13.25236416, 1.87155533, 27.50825119, -0.96515602, 0.10821024, 0.04318862, 0.23430559, 0.01521222, 0.00749944, -0.00409880, 0.00000000, 0.00000000, 0.00000000, 0.00000000
1, 1.3275, 344, 0.01632945, -0.24195941, -0.96933001, -0.62419069, -0.69853449, -0.38263172, -14.43705940, 2.93771434, -46.61105728, 13.25163651, 1.86858630, 27.50684357, -0.96515924, 0.10821079, 0.04316081, 0.23429701, 0.01354483, 0.00723783, -0.00219053, 0.00000000, 0.00000000, 0.00000000, 0.00000000
1, 1.3300, 345, 0.01389482, -0.24208485, -0.96961075, -0.69315141, -0.62808794, -0.52324003, -14.43705940, 2.93771434, -46.61105728, 13.25066757, 1.86574304, 27.50510025, -0.96516347, 0.10820921, 0.04313327, 0.23428556, 0.01592903, 0.00737767, -0.00190763, 0.00000000, 0.00000000, 0.00000000, 0.00000000
1, 1.3325, 346, 0.01292235, -0.24196361, -0.96986753, -0.69315141, -0.62808794, -0.52324003, -14.43705940, 2.93771434, -46.61105728, 13.24969292, 1.86280262, 27.50333023, -0.96516770, 0.10820776, 0.04310486, 0.23427400, 0.01684950, 0.00727111, -0.00165442, 0.00000000, 0.00000000, 0.00000000, 0.00000000
1, 1.3350, 347, 0.01583735, -0.24354728, -0.96862084, -0.62067795, -0.69631439, -0.59308165, -14.43705940, 2.93771434, -46.61105728, 13.24903870, 1.86008334, 27.50133896, -0.96517217, 0.10820865, 0.04307875, 0.23426023, 0.01389055, 0.00887277, -0.00290425, 0.00000000, 0.00000000, 0.00000000, 0.00000000
1, 1.3400, 348, 0.01461685, -0.24026099, -0.96934193, -0.69046509, -0.69590133, -0.66397887, -14.99023819, 3.98678803, -46.89726639, 13.24692535, 1.85455775, 27.49695015, -0.96518254, 0.10820396, 0.04302379, 0.23422965, 0.01501269, 0.00561753, -0.00221020, 0.00000000, 0.00000000, 0.00000000, 0.00000000
1, 1.3425, 349, 0.01413535, -0.24111141, -0.96959925, -0.61902505, -0.55624747, -0.73250395, -14.99023819, 3.98678803, -46.89726639, 13.24602127, 1.85210848, 27.49475098, -0.96518767, 0.10820226, 0.04299926, 0.23421393, 0.01545072, 0.00648144, -0.00195160, 0.00000000, 0.00000000, 0.00000000, 0.00000000
1, 1.3450, 350, 0.01488111, -0.24049191, -0.97079879, -0.68915671, -0.48654088, -0.80296230, -14.99023819, 3.98678803, -46.89726639, 13.24483204, 1.84999728, 27.49244118, -0.96519321, 0.10819749, 0.04297688, 0.23419705, 0.01466477, 0.00587493, -0.00076365, 0.00000000, 0.00000000, 0.00000000, 0.00000000
1, 1.3475, 351, 0.01487046, -0.23976715, -0.97018516, -0.76128566, -0.48760784, -0.73355949, -14.99023819, 3.98678803, -46.89726639, 13.24341393, 1.84784961, 27.49032974, -0.96519870, 0.10819080, 0.04295391, 0.23418196, 0.01463967, 0.00517756, -0.00138832, 0.00000000, 0.00000000, 0.00000000, 0.00000000
1, 1.3500, 352, 0.01521865, -0.23989861, -0.96884364, -0.68984562, -0.34795403, -0.80208462, -14.99023819, 3.98678803, -46.89726639, 13.24226379, 1.84601033, 27.48816299, -0.96520400, 0.10818572, 0.04293404, 0.23416603, 0.01426318, 0.00533609, -0.00273561, 0.00000000, 0.00000000, 0.00000000, 0.00000000
1, 1.3525, 353, 0.01387342, -0.23771094, -0.96908921, -0.68984562, -0.34795403, -0.80208462, -14.96112251, 4.28652334, -46.58243561, 13.24089336, 1.84404480, 27.48602676, -0.96520948, 0.10817908, 0.04291268, 0.23415051, 0.01557346, 0.00317002, -0.00250550, 0.00000000, 0.00000000, 0.00000000, 0.00000000
1, 1.3550, 354, 0.01413447, -0.23940602, -0.96995008, -0.75880635, -0.27750745, -0.94269288, -14.96112251, 4.28652334, -46.58243561, 13.23945713, 1.84246421, 27.48366356, -0.96521544, 0.10817113, 0.04289421, 0.23413274, 0.01528240, 0.00488430, -0.00164213, 0.00000000, 0.00000000, 0.00000000, 0.00000000
1, 1.3575, 355, 0.01437368, -0.23611820, -0.97040612, -0.75880635, -0.27750745, -0.94269288, -14.96112251, 4.28652334, -46.58243561, 13.23770618, 1.84091628, 27.48131752, -0.96522176, 0.10816047, 0.04287539, 0.23411520, 0.01501500, 0.00162343, -0.00121364, 0.00000000, 0.00000000, 0.00000000, 0.00000000
1, 1.3600, 356, 0.01671297, -0.23707385, -0.97183776, -0.61888754, -0.34762707, -0.80133748, -14.96112251, 4.28652334, -46.58243561, 13.23639870, 1.83919346, 27.47931099, -0.96522695, 0.10815379, 0.04285634, 0.23410054, 0.01264158, 0.00259278, 0.00021070, 0.00000000, 0.00000000, 0.00000000, 0.00000000
1, 1.3625, 357, 0.01609730, -0.23768820, -0.97124410, -0.61957651, -0.20904024, -0.80045980, -14.96112251, 4.28652334, -46.58243561, 13.23520660, 1.83762050, 27.47744179, -0.96523172, 0.10814770, 0.04283890, 0.23408683, 0.01323148, 0.00323057, -0.00038322, 0.00000000, 0.00000000, 0.00000000, 0.00000000
1, 1.3650, 358, 0.01646056, -0.23695770, -0.97123271, -0.54779214, -0.13867983, -0.86942375, -14.69909096, 2.63798285, -47.01175308, 13.23412609, 1.83623445, 27.47533798, -0.96523690, 0.10814228, 0.04282305, 0.23407093, 0.01284407, 0.00251836, -0.00040489, 0.00000000, 0.00000000, 0.00000000, 0.00000000
1, 1.4050, 359, 0.02096940, -0.23731375, -0.97092479, 0.02214452, 0.35194996, -1.14097428, -14.61174774, 4.58625889, -46.52518845, 13.22926617, 1.82215250, 27.43689728, -0.96531844, 0.10814485, 0.04265833, 0.23376313, 0.00809046, 0.00295686, -0.00075054, 0.00000000, 0.00000000, 0.00000000, 0.00000000
1, 1.4075, 360, 0.02208181, -0.23888618, -0.97165030, 0.16474958, 0.21401694, -1.14035761, -14.61174774, 4.58625889, -46.52518845, 13.23017788, 1.82245433, 27.43462181, -0.96532232, 0.10815276, 0.04266058, 0.23374331, 0.00698123, 0.00450964, -0.00001533, 0.00000000, 0.00000000, 0.00000000, 0.00000000
1, 1.4100, 361, 0.02026616, -0.23937012, -0.97253257, 0.09427350, 0.35301691, -1.21037734, -14.61174774, 4.58625889, -46.52518845, 13.23089504, 1.82299578, 27.43232727, -0.96532631, 0.10815854, 0.04266444, 0.23372316, 0.00880385, 0.00497633, 0.00087812, 0.00000000, 0.00000000, 0.00000000, 0.00000000
1, 1.4125, 362, 0.02196064, -0.23718008, -0.97212458, 0.02414188, 0.42272347, -1.28083551, -14.61174774, 4.58625889, -46.52518845, 13.23118687, 1.82398129, 27.42995453, -0.96533102, 0.10815983, 0.04267108, 0.23370208, 0.00712779, 0.00278390, 0.00045426, 0.00000000, 0.00000000, 0.00000000, 0.00000000
1, 1.4150, 363, 0.02366748, -0.23766343, -0.97198135, 0.23653404, 0.28437740, -1.20932174, -14.61174774, 4.58625889, -46.52518845, 13.23205566, 1.82477486, 27.42774010, -0.96533477, 0.10816632, 0.04267745, 0.23368230, 0.00543519, 0.00325337, 0.00031291, 0.00000000, 0.00000000, 0.00000000, 0.00000000
1, 1.4175, 364, 0.02283701, -0.23960142, -0.97322530, 0.16722889, 0.42411739, -1.34949124, -15.39784336, 3.02763724, -45.95275879, 13.23286247, 1.82596612, 27.42504692, -0.96533966, 0.10817166, 0.04268658, 0.23365812, 0.00628284, 0.00517058, 0.00157431, 0.00000000, 0.00000000, 0.00000000, 0.00000000
1, 1.4200, 365, 0.02113136, -0.23802069, -0.97372442, 0.16839981, 0.42485744, -1.41964114, -15.39784336, 3.02763724, -45.95275879, 13.23350048, 1.82706189, 27.42202187, -0.96534538, 0.10817591, 0.04269424, 0.23363128, 0.00800622, 0.00357631, 0.00207217, 0.00000000, 0.00000000, 0.00000000, 0.00000000
1, 1.4225, 366, 0.01966789, -0.23595296, -0.97421592, 0.24390404, 0.21952412, -1.63066053, -15.39784336, 3.02763724, -45.95275879, 13.23410416, 1.82768285, 27.41822052, -0.96535254, 0.10818110, 0.04269711, 0.23359841, 0.00947918, 0.00149561, 0.00255864, 0.00000000, 0.00000000, 0.00000000, 0.00000000
1, 1.4250, 367, 0.02319112, -0.23424600, -0.97366279, 0.03371624, 0.15072991, -1.77364075, -15.39784336, 3.02763724, -45.95275879, 13.23401737, 1.82850695, 27.41389847, -0.96536154, 0.10818030, 0.04269980, 0.23356120, 0.00597194, -0.00020658, 0.00198577, 0.00000000, 0.00000000, 0.00000000, 0.00000000
1, 1.4275, 368, 0.02853175, -0.23546588, -0.97152567, -0.11136810, 0.07856249, -1.56512403, -15.39784336, 3.02763724, -45.95275879, 13.23374653, 1.82954001, 27.40991974, -0.96537000, 0.10817735, 0.04270418, 0.23352672, 0.00065537, 0.00103044, -0.00015968, 0.00000000, 0.00000000, 0.00000000, 0.00000000
1, 1.4300, 369, 0.02493350, -0.22954093, -0.96837044, -0.25314674, 0.28652897, -1.63545191, -15.28138542, 4.49633598, -45.80965424, 13.23266315, 1.83084226, 27.40593910, -0.96537930, 0.10816702, 0.04270917, 0.23349230, 0.00428529, -0.00485759, -0.00334266, 0.00000000, 0.00000000, 0.00000000, 0.00000000
1, 1.4325, 370, 0.01766901, -0.22874770, -0.96336663, -0.38294116, 0.91913640, -2.54494643, -15.28138542, 4.49633598, -45.80965424, 13.23138046, 1.83400786, 27.40021706, -0.96539247, 0.10815179, 0.04272781, 0.23344135, 0.01161908, -0.00559969, -0.00833392, 0.00000000, 0.00000000, 0.00000000, 0.00000000
1, 1.4350, 371, 0.02500649, -0.24212059, -0.96166301, -0.43674943, 1.48573756, -3.73473287, -15.28138542, 4.49633598, -45.80965424, 13.23039627, 1.83965933, 27.39197350, -0.96541077, 0.10813489, 0.04276559, 0.23336656, 0.00438478, 0.00780030, -0.00998162, 0.00000000, 0.00000000, 0.00000000, 0.00000000
1, 1.4375, 372, 0.03426001, -0.24771100, -0.95925951, -0.72354448, 2.31669140, -3.80260491, -15.28138542, 4.49633598, -45.80965424, 13.22880745, 1.84764552, 27.38408279, -0.96542919, 0.10810794, 0.04282213, 0.23329264, -0.00472269, 0.01343256, -0.01238076, 0.00000000, 0.00000000, 0.00000000, 0.00000000
1, 1.4400, 373, 0.03009751, -0.24163860, -0.95951575, -1.52109659, 3.13647580, -3.03390813, -15.28138542, 4.49633598, -45.80965424, 13.22509766, 1.85706079, 27.37852478, -0.96544492, 0.10805930, 0.04288859, 0.23323768, -0.00039660, 0.00742294, -0.01215762, 0.00000000, 0.00000000, 0.00000000, 0.00000000
1, 1.4425, 374, 0.02550821, -0.23614030, -0.96416008, -2.51754045, 3.26900554, -2.90319109, -15.31050014, 4.37644243, -46.29621887, 13.21874237, 1.86661601, 27.37335968, -0.96546239, 0.10798794, 0.04295122, 0.23318692, 0.00434638, 0.00200704, -0.00755229, 0.00000000, 0.00000000, 0.00000000, 0.00000000
1, 1.4450, 375, 0.02041297, -0.23296927, -0.96688557, -3.36380148, 2.92083526, -3.12480140, -15.31050014, 4.37644243, -46.29621887, 13.21017075, 1.87535667, 27.36745644, -0.96548337, 0.10789987, 0.04300179, 0.23313154, 0.00958646, -0.00103300, -0.00486023, 0.00000000, 0.00000000, 0.00000000, 0.00000000
1, 1.4475, 376, 0.02340104, -0.23390009, -0.97122520, -3.85293055, 2.57577944, -3.48297572, -15.31050014, 4.37644243, -46.29621887, 13.20034218, 1.88353372, 27.36045265, -0.96550763, 0.10780279, 0.04304404, 0.23306799, 0.00672876, 0.00004067, -0.00055834, 0.00000000, 0.00000000, 0.00000000, 0.00000000
1, 1.5200, 377, 0.12573382, -0.19005635, -0.99279779, 10.80160809, -6.87906027, 52.32313156, -14.49528599, 4.76610088, -46.09586716, 12.46155071, 1.84295905, 28.10144043, -0.96464980, 0.10139112, 0.04185521, 0.23962206, -0.09637141, -0.03136668, 0.01758746, 0.00000000, 0.00000000, 0.00000000, 0.00000000
1, 1.5225, 378, 0.12639683, -0.18748716, -0.97927147, 14.70446014, -2.91836762, 59.68677521, -14.49528599, 4.76610088, -46.09586716, 12.50237656, 1.80298507, 28.24548149, -0.96430779, 0.10176718, 0.04173234, 0.24085766, -0.09769361, -0.03455772, 0.00417689, 0.00000000, 0.00000000, 0.00000000, 0.00000000
1, 1.5250, 379, 0.12265560, -0.18500996, -0.95559913, 16.33734703, 0.89327514, 67.02562714, -14.49528599, 4.76610088, -46.09586716, 12.54777145, 1.76808655, 28.40952682, -0.96391797, 0.10216396, 0.04168063, 0.24225464, -0.09449453, -0.03767499, -0.01934548, 0.00000000, 0.00000000, 0.00000000, 0.00000000
1, 1.5275, 380, 0.11636206, -0.17666219, -0.95209986, 15.28098869, 4.90555429, 73.84635925, -14.49528599, 4.76610088, -46.09586716, 12.59095478, 1.73899877, 28.59239006, -0.96348852, 0.10252313, 0.04169112, 0.24380472, -0.08869842, -0.04674103, -0.02272654, 0.00000000, 0.00000000, 0.00000000, 0.00000000
1, 1.5300, 381, 0.10584102, -0.18499802, -0.99281222, 13.04279900, 6.35581827, 79.93664551, -14.75732136, 4.34646845, -46.84002686, 12.62887955, 1.70986819, 28.79089355, -0.96302748, 0.10283270, 0.04170528, 0.24548750, -0.07880037, -0.03929003, 0.01819231, 0.00000000, 0.00000000, 0.00000000, 0.00000000
1, 1.5325, 382, 0.11119113, -0.20782614, -0.94987756, 11.08837414, 5.93054771, 86.57926941, -14.75732136, 4.34646845, -46.84002686, 12.66229916, 1.67586505, 29.00528526, -0.96253252, 0.10310952, 0.04168435, 0.24730939, -0.08462320, -0.01678646, -0.02451384, 0.00000000, 0.00000000, 0.00000000, 0.00000000
1, 1.5350, 383, 0.09988616, -0.21448572, -0.94183391, 7.55344725, 6.80651999, 93.98545837, -14.75732136, 4.34646845, -46.84002686, 12.68724823, 1.63969684, 29.23819160, -0.96200109, 0.10331370, 0.04164473, 0.24929097, -0.07392670, -0.01050908, -0.03240925, 0.00000000, 0.00000000, 0.00000000, 0.00000000
1, 1.5375, 384, 0.08305858, -0.20945922, -0.95213693, 3.39071321, 6.92176199, 100.95917511, -14.75732136, 4.34646845, -46.84002686, 12.70205593, 1.59977210, 29.48808861, -0.96143669, 0.10343552, 0.04156771, 0.25142136, -0.05782467, -0.01585152, -0.02205059, 0.00000000, 0.00000000, 0.00000000, 0.00000000
1, 1.5400, 385, 0.07030290, -0.21177770, -0.95514369, 0.17605923, 5.66722393, 106.81143951, -14.75732136, 4.34646845, -46.84002686, 12.70897198, 1.55342472, 29.75151825, -0.96084380, 0.10350146, 0.04143239, 0.25367305, -0.04588616, -0.01367309, -0.01898974, 0.00000000, 0.00000000, 0.00000000, 0.00000000
1, 1.5425, 386, 0.05453279, -0.21937248, -0.96845132, -2.17690539, 4.49256468, 112.04175568, -14.96112251, 4.82604551, -46.09586716, 12.71007442, 1.50121820, 30.02700043, -0.96022296, 0.10352872, 0.04124643, 0.25603208, -0.03106454, -0.00617956, -0.00561347, 0.00000000, 0.00000000, 0.00000000, 0.00000000
1, 1.5450, 387, 0.03907232, -0.22153959, -0.96079826, -3.60190535, 3.39514947, 116.93148041, -14.96112251, 4.82604551, -46.09586716, 12.70761013, 1.44355893, 30.31375694, -0.95957309, 0.10353598, 0.04101736, 0.25849047, -0.01658862, -0.00393196, -0.01324487, 0.00000000, 0.00000000, 0.00000000, 0.00000000
1, 1.5475, 388, 0.01816756, -0.21460518, -0.96762115, -4.30272388, 3.14436460, 120.71153259, -14.96112251, 4.82604551, -46.09586716, 12.70328426, 1.38314414, 30.60957146, -0.95889735, 0.10353255, 0.04076948, 0.26102623, 0.00324283, -0.01083786, -0.00644545, 0.00000000, 0.00000000, 0.00000000, 0.00000000
1, 1.5500, 389, 0.00665869, -0.21904820, -0.96308833, -3.70666671, 2.49480557, 123.45014954, -14.96112251, 4.82604551, -46.09586716, 12.70027256, 1.31960344, 30.91170502, -0.95819843, 0.10354705, 0.04050444, 0.26361546, 0.01365567, -0.00632309, -0.01095711, 0.00000000, 0.00000000, 0.00000000, 0.00000000
1, 1.5525, 390, -0.02082811, -0.21400248, -0.93342942, -2.68279815, 3.79482436, 125.50405884, -14.96112251, 4.82604551, -46.09586716, 12.69960594, 1.25803888, 31.21954155, -0.95747721, 0.10357662, 0.04026687, 0.26624769, 0.04015170, -0.01119098, -0.04059336, 0.00000000, 0.00000000, 0.00000000, 0.00000000
1, 1.5550, 391, -0.05930341, -0.19554260, -0.94224614, -2.20214510, 7.26252413, 125.46108246, -14.81554890, 5.81517076, -46.55381012, 12.69984055, 1.20488477, 31.52925301, -0.95674473, 0.10359513, 0.04010371, 0.26888514, 0.07767483, -0.02971000, -0.03179398, 0.00000000, 0.00000000, 0.00000000, 0.00000000
1, 1.5575, 392, -0.08654345, -0.19059671, -0.97617137, -1.31256104, 8.81976414, 122.74384308, -14.81554890, 5.81517076, -46.55381012, 12.70191288, 1.15700972, 31.83321762, -0.95601767, 0.10362000, 0.03998412, 0.27146694, 0.10398391, -0.03489126, 0.00216978, 0.00000000, 0.00000000, 0.00000000, 0.00000000
